Devices
1000
,,North - Force,,,North - Moment,,,North - CoP,,,South - Force,,,South - Moment,,,South - CoP,,,EMG - Voltage,,,,,,,,,,,,,,,,
Frame,Sub Frame,Fx,Fy,Fz,Mx,My,Mz,Cx,Cy,Cz,Fx,Fy,Fz,Mx,My,Mz,Cx,Cy,Cz,1,2,3,TA,5,Sol,7,8,VL,RF,BF,GlutMed,GlutMax,14,MedGast,16
,,N,N,N,N.mm,N.mm,N.mm,mm,mm,mm,N,N,N,N.mm,N.mm,N.mm,mm,mm,mm,V,V,V,V,V,V,V,V,V,V,V,V,V,V,V,V
1,0,0,0,0,0,0,0,231.8,254,0,0,0,0,0,0,0,231.8,766,0,0.000807228,0.00125565,0.000974007,0.0157852,0.00621304,0.000867996,0.00106422,0.000532188,0.0161994,-0.000122223,0.000506287,0.0180667,0.0549814,0.00124935,0.000886955,-0.00775818
1,1,0,0,0,0,0,0,231.8,254,0,0,0,0,0,0,0,231.8,766,0,-3.20049e-05,-7.94986e-05,0.00101215,0.0158233,-0.000119362,0.000333939,0.000224991,0.000608482,-0.053991,0.000449982,-0.000561829,0.0162356,-0.0366095,-0.000772438,0.000963249,-0.00813965
1,2,0,0,0,0,0,0,231.8,254,0,0,0,0,0,0,0,231.8,766,0,0.000235024,-0.000346527,0.000439949,0.0160522,0.00533566,0.000486526,3.42559e-05,-0.000154457,0.101191,3.03648e-05,1.03759e-05,0.0156253,-0.0652197,0.000181236,0.000352898,-0.00737671
1,3,0,0,0,0,0,0,231.8,254,0,0,0,0,0,0,0,231.8,766,0,0.00137943,0.00156082,0.00131733,0.0166244,0.00464901,0.00193611,0.00159828,0.00076107,0.0242484,0.00163254,0.000925903,0.0157779,0.0307581,0.00155453,0.00149731,-0.00749115
1,4,0,0,0,0,0,0,231.8,254,0,0,0,0,0,0,0,231.8,766,0,0.000387612,0.000416412,0.00055439,0.0164718,0.00201687,0.00117317,0.00117867,0.000532188,-0.0840127,0.000564422,-0.000485535,0.0159686,-0.0406149,0.0012875,0.00103954,-0.00833038
1,5,0,0,0,0,0,0,231.8,254,0,0,0,0,0,0,0,231.8,766,0,0.000311318,0.000111236,0.000859566,0.0156707,0.00201687,0.000829849,0.000835342,0.000417748,-0.0176369,0.00102219,0.000162964,0.0171511,-0.107372,0.000867882,0.000810661,-0.00859741
1,6,0,0,0,0,0,0,231.8,254,0,0,0,0,0,0,0,231.8,766,0,0.00115055,0.000607147,0.000287361,0.0158233,0.00445827,-9.38424e-06,-0.000156479,0.000951805,0.0176109,-0.000122223,-0.0002948,0.0174563,-0.0806311,-0.00023838,0.00206951,-0.0093222
1,7,0,0,0,0,0,0,231.8,254,0,0,0,0,0,0,0,231.8,766,0,0.000883522,0.000912323,0.00131733,0.0167389,0.00552639,0.00189796,0.00148384,-0.000574074,0.0829185,0.00159439,1.03759e-05,0.0146334,-0.0195197,0.0012875,0.0010014,-0.00798706
1,8,0,0,0,0,0,0,231.8,254,0,0,0,0,0,0,0,231.8,766,0,0.00015873,0.00095047,-0.000475578,0.0165863,0.00644192,0.00102058,0.000720901,0.000837364,-0.0636422,0.000373688,-0.000599976,0.00875881,-0.00361237,0.000867882,0.00126843,-0.00905518
1,9,0,0,0,0,0,0,231.8,254,0,0,0,0,0,0,0,231.8,766,0,0.000616494,7.30893e-05,0.000401802,0.0158996,0.00354275,0.000867996,0.00106422,-7.81631e-05,0.0226844,6.85118e-05,-0.000409241,0.0112384,-0.0878409,0.000753441,0.00168804,-0.00871185
2,0,0,0,0,0,0,0,231.8,254,0,0,0,0,0,0,0,231.8,766,0,0.000807228,0.00110306,0.000134773,0.0160904,0.00430569,0.000372085,-4.2038e-05,-0.000650368,0.0830329,0.00121292,0.000239258,0.0135653,0.0203058,0.000333824,0.000772514,-0.00764374
2,1,0,0,0,0,0,0,231.8,254,0,0,0,0,0,0,0,231.8,766,0,-0.00071865,0.00110306,-0.000437431,0.0148697,0.00178799,0.000410232,-4.2038e-05,-0.00011631,-0.0607049,-0.00119034,-0.000104065,0.0123065,0.029194,6.67954e-05,0.00149731,-0.010047
2,2,0,0,0,0,0,0,231.8,254,0,0,0,0,0,0,0,231.8,766,0,-0.000146446,0.00018753,0.000630684,0.0169296,-0.000233803,2.87627e-05,0.00049202,-7.81631e-05,0.0234473,0.000297394,4.85228e-05,0.013222,-0.0465659,-0.000123939,0.000238457,-0.00829224
2,3,0,0,0,0,0,0,231.8,254,0,0,0,0,0,0,0,231.8,766,0,-0.000184593,0.00106491,5.84793e-05,0.0158996,-0.00191227,0.000410232,0.00011055,-0.000307045,0.0983298,0.000640716,-0.0002948,0.0123828,0.0371286,0.000677147,0.00149731,-0.00871185
2,4,0,0,0,0,0,0,231.8,254,0,0,0,0,0,0,0,231.8,766,0,0.000845375,0.000988617,-0.00032299,0.0166244,-0.002103,0.00105873,0.000301285,0.000341454,-0.0621163,0.00125107,0.000239258,0.0140612,0.0481149,-8.57925e-05,-0.000143013,-0.0101233
2,5,0,0,0,0,0,0,231.8,254,0,0,0,0,0,0,0,231.8,766,0,0.0011124,0.000797882,0.000821419,0.0160141,-0.00256077,0.00117317,0.000911636,0.000379601,0.0239814,0.00109848,-0.000409241,0.0146334,-0.0525931,0.000639,0.000543633,-0.00909332
2,6,0,0,0,0,0,0,231.8,254,0,0,0,0,0,0,0,231.8,766,0,0.000311318,0.00205673,0.00139362,0.0166244,-0.000806007,0.000524673,0.000949783,0.00110439,0.105082,0.000259247,0.00111664,0.0144809,0.01569,0.00178341,0.00103954,-0.00970367
2,7,0,0,0,0,0,0,231.8,254,0,0,0,0,0,0,0,231.8,766,0,0.000959816,0.000301971,0.000516243,0.0167007,-0.00130192,0.00117317,0.000682754,0.000417748,-0.0657784,0.00132736,0.000239258,0.0147097,0.0531503,0.00155453,0.000658073,-0.00775818
2,8,0,0,0,0,0,0,231.8,254,0,0,0,0,0,0,0,231.8,766,0,0.000616494,-0.000842438,0.000668831,0.0158996,-0.00225559,0.000486526,0.00011055,0.000455895,-0.0458276,0.000755157,-0.00113403,0.0130313,-0.075672,0.000295677,-2.8572e-05,-0.00657562
2,9,0,0,0,0,0,0,231.8,254,0,0,0,0,0,0,0,231.8,766,0,0.0011887,0.00129379,0.000325508,0.0165863,0.00140652,0.000867996,0.00152199,-0.000154457,-0.0106561,-0.000351105,0.000391846,0.0105517,-0.0616339,0.00147823,0.00058178,-0.00958923
3,0,0,0,0,0,0,0,231.8,254,0,0,0,0,0,0,0,231.8,766,0,0.000845375,-0.000117646,0.000630684,0.0155182,0.0022076,0.000829849,0.000415726,0.000303307,0.0739158,-0.000122223,-0.000638123,0.0151675,-0.0326422,0.000677147,0.000772514,-0.00829224
3,1,0,0,0,0,0,0,231.8,254,0,0,0,0,0,0,0,231.8,766,0,-0.000260887,-0.000499115,-5.59617e-05,0.0155182,0.00358089,0.00094429,0.000873489,-1.86916e-06,0.0110877,0.000678863,0.000353699,0.0155871,0.0265237,0.000791588,0.0022221,-0.00821594
3,2,0,0,0,0,0,0,231.8,254,0,0,0,0,0,0,0,231.8,766,0,0.000845375,0.00125565,0.00108845,0.0158615,0.00300869,-0.000123825,0.00106422,0.00110439,-0.0532662,0.000907745,0.00168884,0.0165026,-0.0651816,0.000295677,0.00153545,-0.00707153
3,3,0,0,0,0,0,0,231.8,254,0,0,0,0,0,0,0,231.8,766,0,0.000921669,0.0011412,0.00108845,0.0166244,0.00506863,0.00170723,0.00110237,-0.000230751,0.0885261,0.000678863,0.000811462,0.0189822,-0.0728873,0.00105862,0.000848808,-0.00875
3,4,0,0,0,0,0,0,231.8,254,0,0,0,0,0,0,0,231.8,766,0,0.000845375,-0.00019394,0.000478096,0.0167007,0.00476345,-0.000123825,0.00167458,0.000341454,0.00910408,-7.78213e-06,0.00168884,0.0165026,0.0399515,0.00147823,0.000619926,-0.00775818
3,5,0,0,0,0,0,0,231.8,254,0,0,0,0,0,0,0,231.8,766,0,0.000502053,-0.000842438,0.000668831,0.0158233,0.00438198,-0.000276413,0.000339432,7.44248e-05,-0.0534188,-8.40761e-05,-0.000447388,0.0175708,-0.0456122,-0.000276527,0.00103954,-0.00943665
3,6,0,0,0,0,0,0,231.8,254,0,0,0,0,0,0,0,231.8,766,0,0.000235024,0.000607147,0.000478096,0.0160141,0.00384792,0.000181351,3.42559e-05,-0.000345192,0.098101,0.000640716,0.000201111,0.0211184,-0.0483206,0.000906029,0.000314751,-0.00848297
3,7,0,0,0,0,0,0,231.8,254,0,0,0,0,0,0,0,231.8,766,0,0.00160831,0.0011412,0.00116474,0.0158615,0.00861629,0.000791702,0.00182716,0.000608482,0.0171912,0.00071701,0.000506287,0.014519,0.0573083,0.000410118,0.00184063,-0.00920776
3,8,0,0,0,0,0,0,231.8,254,0,0,0,0,0,0,0,231.8,766,0,0.000196877,0.000149383,0.000783272,0.0158996,0.00659451,0.000791702,0.000835342,-0.00049778,-0.0535332,0.000755157,0.000315552,0.0134509,-0.0219611,0.000371971,0.000391045,-0.00875
3,9,0,0,0,0,0,0,231.8,254,0,0,0,0,0,0,0,231.8,766,0,0.000349465,0.000569,0.000287361,0.0162811,0.0066708,0.000181351,-0.00065239,0.000608482,0.100581,0.000869598,-0.000142212,0.0126498,-0.0300101,0.000181236,0.00126843,-0.00909332
4,0,0,0,0,0,0,0,231.8,254,0,0,0,0,0,0,0,231.8,766,0,0.000769082,0.000301971,0.000630684,0.0152893,0.00834927,0.00105873,0.000720901,0.000341454,0.0245536,0.00106033,0.00058258,0.00990322,0.0631067,0.00117306,0.000124016,-0.00806335
4,1,0,0,0,0,0,0,231.8,254,0,0,0,0,0,0,0,231.8,766,0,0.000692788,0.000569,-0.000246697,0.0162811,0.00754818,0.00128761,0.00098793,0.000684776,-0.0835931,-7.78213e-06,0.000162964,0.0122683,-0.000636902,0.000486412,0.000658073,-0.00859741
4,2,0,0,0,0,0,0,231.8,254,0,0,0,0,0,0,0,231.8,766,0,0.000730935,0.000225677,0.000859566,0.0168151,0.00564083,0.000181351,0.00133125,-1.86916e-06,-0.0172555,0.000335541,0.000353699,0.013222,-0.0640372,0.000944176,0.000467339,-0.00779633
4,3,0,0,0,0,0,0,231.8,254,0,0,0,0,0,0,0,231.8,766,0,0.000997963,0.00117935,0.00146992,0.0164337,0.00663265,0.000867996,0.000949783,0.000684776,0.0185264,0.00113663,-0.000523682,0.0150149,-0.0378683,0.000829735,0.00123028,-0.0081778
4,4,0,0,0,0,0,0,231.8,254,0,0,0,0,0,0,0,231.8,766,0,0.00126499,0.00159897,0.000974007,0.0166244,0.0054501,0.00094429,0.000339432,0.000188866,0.0840247,0.000678863,0.00126923,0.0169604,0.00115601,0.000333824,0.00115398,-0.00829224
4,5,0,0,0,0,0,0,231.8,254,0,0,0,0,0,0,0,231.8,766,0,0.000196877,0.000607147,0.000516243,0.0156707,0.000796166,0.00117317,0.00140755,0.000341454,-0.0641381,0.000526275,-0.0002948,0.0135653,0.00912872,0.000753441,0.000925102,-0.00936035
4,6,0,0,0,0,0,0,231.8,254,0,0,0,0,0,0,0,231.8,766,0,0.000196877,0.000111236,0.000211067,0.0154419,-0.00141636,0.000486526,0.00106422,-0.00011631,0.0219978,-7.78213e-06,-0.000752564,0.00925472,-0.103023,0.000333824,0.00119213,-0.00787262
4,7,0,0,0,0,0,0,231.8,254,0,0,0,0,0,0,0,231.8,766,0,0.000807228,-4.13517e-05,0.000859566,0.0163955,0.00262722,-4.75312e-05,0.000186844,7.44248e-05,0.0834907,0.000602569,0.000811462,0.00536373,-0.0173071,0.00124935,-0.000410042,-0.00867371
4,8,0,0,0,0,0,0,231.8,254,0,0,0,0,0,0,0,231.8,766,0,0.000387612,0.0012175,0.000859566,0.0171203,0.00556454,0.00132576,0.00148384,0.000837364,-0.0603234,0.00109848,0.00104034,0.00765255,-0.0311545,0.00102047,0.00172619,-0.0081015
4,9,0,0,0,0,0,0,231.8,254,0,0,0,0,0,0,0,231.8,766,0,0.00126499,0.0012175,0.00120289,0.0161666,0.00800594,0.00102058,0.00152199,0.000799217,0.0237525,0.000640716,0.000925903,0.00814846,-0.130413,0.000944176,0.000352898,-0.00772003
5,0,0,0,0,0,0,0,231.8,254,0,0,0,0,0,0,0,231.8,766,0,4.4289e-05,0.0012175,0.000783272,0.0165863,0.00773891,0.00109688,0.000339432,0.000341454,0.0991309,0.000907745,0.000162964,0.0135272,-0.0393561,0.00132565,0.000391045,-0.00821594
5,1,0,0,0,0,0,0,231.8,254,0,0,0,0,0,0,0,231.8,766,0,-7.01519e-05,0.000759735,0.000859566,0.0161666,0.00865444,0.000906143,0.00121681,0.000379601,-0.0612008,0.00178513,0.00153625,0.0129168,-0.00582489,0.0018597,0.00138287,-0.00772003
5,2,0,0,0,0,0,0,231.8,254,0,0,0,0,0,0,0,231.8,766,0,0.000959816,-0.000460968,0.000363655,0.0158233,0.00857815,-4.75312e-05,3.42559e-05,-0.00011631,0.0236762,0.000488129,0.00046814,0.0130694,-0.10123,0.000639,0.000925102,-0.00897888
5,3,0,0,0,0,0,0,231.8,254,0,0,0,0,0,0,0,231.8,766,0,0.0011124,0.000988617,0.000592537,0.0155182,0.00339016,0.000257645,0.00163643,0.000494041,0.105044,0.00113663,0.00119293,0.0131076,0.00375,0.000639,0.000734367,-0.00840668
5,4,0,0,0,0,0,0,231.8,254,0,0,0,0,0,0,0,231.8,766,0,0.00130314,0.000645294,0.00055439,0.0157852,-0.00175968,0.000906143,0.00117867,0.00121883,-0.0659692,0.00117477,0.000620727,0.0172656,0.0473138,0.00147823,0.00142101,-0.00901703
5,5,0,0,0,0,0,0,231.8,254,0,0,0,0,0,0,0,231.8,766,0,-0.00071865,-0.00019394,0.000401802,0.0164337,-0.000577125,0.00094429,0.000911636,3.62778e-05,-0.0452554,-0.000579987,-0.000218506,0.0179904,-0.0654486,-9.49856e-06,0.00107769,-0.00840668
5,6,0,0,0,0,0,0,231.8,254,0,0,0,0,0,0,0,231.8,766,0,0.000845375,0.000378265,0.00116474,0.0155944,0.00251278,0.00056282,0.00133125,-4.00161e-05,-0.0101601,0.000373688,-0.000485535,0.0142138,-0.045307,0.000944176,0.00138287,-0.00955109
5,7,0,0,0,0,0,0,231.8,254,0,0,0,0,0,0,0,231.8,766,0,0.0011124,-7.94986e-05,0.00101215,0.0166244,0.00277981,0.000715408,0.000568314,0.00125698,0.0726951,0.000602569,0.00111664,0.0177615,-0.00658783,0.000753441,0.00115398,-0.0081778
5,8,0,0,0,0,0,0,231.8,254,0,0,0,0,0,0,0,231.8,766,0,0.00103611,0.000721588,0.000859566,0.0163192,0.000796166,0.00117317,0.00159828,0.000684776,0.0118125,0.00159439,0.000506287,0.0171511,0.0622293,0.00163082,0.000619926,-0.00794891
5,9,0,0,0,0,0,0,231.8,254,0,0,0,0,0,0,0,231.8,766,0,0.000578347,0.00156082,0.00158436,0.0168533,0.000605431,0.000791702,-0.000118332,0.000951805,-0.052427,0.00109848,0.000735168,0.0165408,-0.0300101,0.000982323,0.00161175,-0.007453
6,0,0,0,0,0,0,0,231.8,254,0,0,0,0,0,0,0,231.8,766,0,4.4289e-05,0.000263824,0.000783272,0.0170822,0.00354275,0.000867996,0.00098793,0.000494041,0.0872291,0.00170883,0.00096405,0.0153964,-0.0422171,0.00189785,0.000772514,-0.00924591
6,1,0,0,0,0,0,0,231.8,254,0,0,0,0,0,0,0,231.8,766,0,0.000196877,0.000912323,0.000745125,0.0165863,3.32261e-05,0.000982437,0.000911636,0.000341454,0.00460274,0.000869598,0.000162964,0.0152819,0.0408289,0.000639,0.0010014,-0.0093985
6,2,0,0,0,0,0,0,231.8,254,0,0,0,0,0,0,0,231.8,766,0,0.000273171,7.30893e-05,-0.000475578,0.0158233,-0.00397221,0.000333939,0.000148697,0.00026516,-0.0502145,6.85118e-05,0.000239258,0.0151675,-0.0622824,0.000677147,-0.000905952,-0.00924591
6,3,0,0,0,0,0,0,231.8,254,0,0,0,0,0,0,0,231.8,766,0,8.2436e-05,-0.000270233,0.000668831,0.0162429,3.32261e-05,0.000257645,-0.000576096,0.000608482,0.0979865,0.000564422,-0.000180359,0.017113,-0.0722388,0.000486412,0.000238457,-0.00894073
6,4,0,0,0,0,0,0,231.8,254,0,0,0,0,0,0,0,231.8,766,0,0.000730935,0.000416412,-0.000170403,0.0158996,0.00186428,0.000791702,-4.2038e-05,0.000455895,0.0167716,0.000793304,0.00104034,0.0208133,0.0215265,0.000639,-0.000219307,-0.00802521
6,5,0,0,0,0,0,0,231.8,254,0,0,0,0,0,0,0,231.8,766,0,0.000349465,-7.94986e-05,0.000974007,0.0158233,0.00174984,0.000829849,0.000682754,0.00026516,-0.0558602,0.00132736,-0.000142212,0.014519,-0.0816992,0.00117306,-0.000448189,-0.00882629
6,6,0,0,0,0,0,0,231.8,254,0,0,0,0,0,0,0,231.8,766,0,0.000578347,0.000721588,0.000706978,0.0169296,-0.00160709,0.00102058,0.00148384,0.000684776,0.101115,0.000144806,0.000735168,0.00898769,-0.0944785,0.00132565,0.00161175,-0.00886444
6,7,0,0,0,0,0,0,231.8,254,0,0,0,0,0,0,0,231.8,766,0,0.000235024,-0.000346527,0.000211067,0.0150985,-0.0021793,-0.000352707,0.000377579,0.000341454,0.0250877,0.000640716,-0.0002948,0.00929287,0.0237772,0.000524559,0.00020031,-0.00852112
6,8,0,0,0,0,0,0,231.8,254,0,0,0,0,0,0,0,231.8,766,0,0.000654641,-0.000384674,0.00127918,0.0173492,0.000643578,0.000906143,0.000835342,0.000341454,-0.0835549,0.00128921,0.000429993,0.0141757,-0.0327567,0.000524559,-0.000715218,-0.00802521
6,9,0,0,0,0,0,0,231.8,254,0,0,0,0,0,0,0,231.8,766,0,0.0005402,0.000721588,0.000821419,0.0160141,0.00354275,0.000677261,0.00049202,0.000379601,-0.0180184,0.000297394,0.0010022,0.0152819,-0.083187,0.000829735,0.00111584,-0.00779633
7,0,0,0,0,0,0,0,231.8,254,0,0,0,0,0,0,0,231.8,766,0,0.000730935,0.000645294,-0.00032299,0.0155944,0.0048016,0.000105057,0.000720901,0.000150719,0.0184501,0.000564422,-0.000714417,0.0155871,-0.0284079,0.000639,8.58689e-05,-0.00867371
7,1,0,0,0,0,0,0,231.8,254,0,0,0,0,0,0,0,231.8,766,0,-0.00071865,0.000340118,0.000439949,0.0157089,0.00758633,-0.000200119,0.000339432,7.44248e-05,0.0826514,0.000526275,-0.000371094,0.0126879,0.0200388,0.000333824,0.00103954,-0.00920776
7,2,0,0,0,0,0,0,231.8,254,0,0,0,0,0,0,0,231.8,766,0,0.00191349,0.00129379,0.000592537,0.0164337,0.00907406,0.000448379,0.00060646,0.000227013,-0.0625359,0.00109848,0.000391846,0.0140612,0.0419351,0.000906029,0.00115398,-0.00833038
7,3,0,0,0,0,0,0,231.8,254,0,0,0,0,0,0,0,231.8,766,0,0.000997963,-0.00019394,0.00055439,0.0174255,0.00934109,0.00124947,0.00106422,0.000455895,0.0232566,0.000259247,0.00111664,0.0174182,-0.0473288,0.00109676,-0.000524483,-0.0081778
7,4,0,0,0,0,0,0,231.8,254,0,0,0,0,0,0,0,231.8,766,0,0.00149387,0.000988617,0.000668831,0.0165481,0.0102566,0.00102058,0.00125496,0.00133327,0.0829185,0.00113663,0.000773315,0.0185244,0.0441476,0.0012875,0.00164989,-0.0093985
7,5,0,0,0,0,0,0,231.8,254,0,0,0,0,0,0,0,231.8,766,0,0.000425759,0.000645294,0.000974007,0.0167007,0.00930294,0.000791702,0.000644607,0.000570335,-0.0596749,0.00132736,0.000773315,0.0215762,0.0319406,0.000715294,0.000429192,-0.00936035
7,6,0,0,0,0,0,0,231.8,254,0,0,0,0,0,0,0,231.8,766,0,0.00015873,-0.000232087,0.000630684,0.0173111,0.0109051,0.000448379,0.00171272,0.000379601,0.0231803,0.000793304,0.00107849,0.0231402,-0.0563696,0.00102047,-0.000448189,-0.00772003
7,7,0,0,0,0,0,0,231.8,254,0,0,0,0,0,0,0,231.8,766,0,0.000883522,0.0011412,2.03323e-05,0.0165481,0.0123166,0.000372085,0.000453873,-0.00049778,0.0979484,0.000526275,0.000658874,0.0182574,0.0165674,0.000791588,0.000963249,-0.00875
7,8,0,0,0,0,0,0,231.8,254,0,0,0,0,0,0,0,231.8,766,0,0.0011124,0.000607147,-1.78147e-05,0.0166244,0.0100659,0.000791702,0.000873489,0.000455895,-0.0616586,-0.000847016,-0.000599976,0.0165408,0.0219461,0.000600853,0.000162163,-0.00813965
7,9,0,0,0,0,0,0,231.8,254,0,0,0,0,0,0,0,231.8,766,0,0.00141758,0.000492706,0.00093586,0.0166626,0.00495419,0.00124947,0.00129311,0.000837364,0.0250877,0.00147995,0.000697021,0.0118487,-0.0774268,0.00124935,0.00069622,-0.00901703
8,0,0,0,0,0,0,0,231.8,254,0,0,0,0,0,0,0,231.8,766,0,0.000883522,0.00159897,0.000974007,0.0164337,0.00762447,0.000105057,0.000759048,0.000989952,0.105501,0.00136551,0.000811462,0.0126879,-0.00796112,0.000371971,0.00138287,-0.00798706
8,1,0,0,0,0,0,0,231.8,254,0,0,0,0,0,0,0,231.8,766,0,0.000387612,0.000530853,0.00055439,0.0158615,0.00773891,0.000448379,0.000453873,0.000532188,-0.0654733,0.00071701,0.000391846,0.0110858,0.0163004,0.000410118,0.000314751,-0.00821594
8,2,0,0,0,0,0,0,231.8,254,0,0,0,0,0,0,0,231.8,766,0,0.00134129,0.00156082,0.00093586,0.0162811,0.00770077,0.000448379,0.00117867,0.000341454,-0.0452172,0.00102219,0.000925903,0.0140231,-0.100239,0.000562706,0.00126843,-0.00905518
8,3,0,0,0,0,0,0,231.8,254,0,0,0,0,0,0,0,231.8,766,0,0.000769082,0.000645294,0.000363655,0.0169677,0.00846371,0.000524673,-4.2038e-05,0.000875511,-0.011152,0.000869598,-0.000371094,0.0137179,-0.0953558,0.000219383,0.000734367,-0.00905518
8,4,0,0,0,0,0,0,231.8,254,0,0,0,0,0,0,0,231.8,766,0,0.0005402,0.000530853,0.000897713,0.0158996,0.007243,0.000486526,0.000224991,0.000112572,0.0736106,0.00102219,0.000658874,0.0130313,-0.0538519,0.000371971,0.00107769,-0.00813965
8,5,0,0,0,0,0,0,231.8,254,0,0,0,0,0,0,0,231.8,766,0,0.000769082,0.000454559,0.000592537,0.0163955,0.00827297,0.000105057,0.000644607,0.000570335,0.0105537,0.00147995,0.0022229,0.0162356,0.0325128,0.000906029,0.000543633,-0.00882629
8,6,0,0,0,0,0,0,231.8,254,0,0,0,0,0,0,0,231.8,766,0,-0.000337181,0.000569,0.000134773,0.015213,0.00689968,0.000791702,0.00102608,-0.000802956,-0.0528466,0.00132736,-0.000180359,0.0143664,-0.0571326,0.000639,0.000505486,-0.00806335
8,7,0,0,0,0,0,0,231.8,254,0,0,0,0,0,0,0,231.8,766,0,0.000959816,0.000569,0.00146992,0.017044,0.0100277,0.00132576,7.24029e-05,0.00106625,0.0879157,0.000564422,0.00119293,0.0166171,-0.0489691,0.00117306,0.000314751,-0.00901703
8,8,0,0,0,0,0,0,231.8,254,0,0,0,0,0,0,0,231.8,766,0,-7.01519e-05,0.00018753,0.000668831,0.0158233,0.00823482,0.00117317,0.00125496,0.000341454,0.00864632,0.000678863,0.000697021,0.0176471,0.0676843,0.00136379,0.00115398,-0.00821594
8,9,0,0,0,0,0,0,231.8,254,0,0,0,0,0,0,0,231.8,766,0,0.000311318,0.000263824,-0.000246697,0.0147934,0.00419125,0.000257645,-0.000576096,-0.000307045,-0.0525033,-8.40761e-05,-0.000142212,0.0166552,-0.0210074,6.67954e-05,-0.000143013,-0.0093985
9,0,0,0,0,0,0,0,231.8,254,0,0,0,0,0,0,0,231.8,766,0,-7.01519e-05,0.00018753,-5.59617e-05,0.0155182,0.0047253,-0.000123825,0.000759048,0.000150719,0.0985969,0.000297394,0.00058258,0.016083,-0.0217322,0.000219383,-0.000524483,-0.00970367
9,1,0,0,0,0,0,0,231.8,254,0,0,0,0,0,0,0,231.8,766,0,0.00015873,-4.13517e-05,0.000249214,0.0155182,0.00373348,-4.75312e-05,0.00060646,-0.000421486,0.0167335,0.00117477,-0.00109589,0.012955,0.0758478,0.000562706,0.000619926,-0.0103522
9,2,0,0,0,0,0,0,231.8,254,0,0,0,0,0,0,0,231.8,766,0,0.000692788,-0.000346527,0.000363655,0.0163574,0.00358089,0.000600967,-3.89107e-06,0.000303307,-0.0538766,0.000106659,0.00107849,0.0131457,-0.0177649,0.000753441,0.00107769,-0.00833038
9,3,0,0,0,0,0,0,231.8,254,0,0,0,0,0,0,0,231.8,766,0,0.00122685,0.000301971,0.000897713,0.0164718,7.13731e-05,0.00109688,0.00133125,-0.000307045,0.100848,0.00155624,0.0015744,0.0159686,-0.0420264,0.000867882,0.000314751,-0.00779633
9,4,0,0,0,0,0,0,231.8,254,0,0,0,0,0,0,0,231.8,766,0,0.000692788,-0.000651703,0.000134773,0.0156707,0.00129208,-0.000238266,-0.000461655,0.000341454,0.0240195,-0.000198517,0.000391846,0.0182574,0.048382,-0.000429115,0.000162163,-0.00913147
9,5,0,0,0,0,0,0,231.8,254,0,0,0,0,0,0,0,231.8,766,0,0.00115055,0.000111236,0.00093586,0.0173874,0.00354275,-4.75312e-05,0.000186844,0.00114254,-0.0830209,0.000144806,0.00130737,0.0194781,-0.022724,0.000371971,0.00126843,-0.00875
9,6,0,0,0,0,0,0,231.8,254,0,0,0,0,0,0,0,231.8,766,0,0.00107426,0.00102676,0.000592537,0.0168151,0.00049099,0.00056282,0.000759048,0.000608482,-0.0172173,0.000984039,0.0015744,0.0145572,-0.0922278,0.00025753,0.00199322,-0.00852112
9,7,0,0,0,0,0,0,231.8,254,0,0,0,0,0,0,0,231.8,766,0,0.000921669,0.00095047,0.000516243,0.0159378,-0.000806007,0.00113502,0.000453873,-0.000650368,0.0183356,0.000106659,0.000544433,0.0147479,-0.0584677,0.00025753,0.00058178,-0.0099707
9,8,0,0,0,0,0,0,231.8,254,0,0,0,0,0,0,0,231.8,766,0,0.00103611,0.000225677,0.000897713,0.0169296,0.00506863,0.00105873,0.00117867,0.00125698,0.0831855,-7.78213e-06,0.000735168,0.0131457,-0.0273016,0.0012112,0.00119213,-0.00913147
9,9,0,0,0,0,0,0,231.8,254,0,0,0,0,0,0,0,231.8,766,0,0.000349465,0.000607147,-5.59617e-05,0.0162811,0.00564083,0.000410232,0.00049202,3.62778e-05,-0.0629556,-0.000122223,0.000277405,0.0109332,-0.0139883,0.0012112,0.00126843,-0.00791077
10,0,0,0,0,0,0,0,231.8,254,0,0,0,0,0,0,0,231.8,766,0,6.14207e-06,-0.000499115,-0.000513725,0.0155563,0.00274166,0.000448379,-0.000347214,0.000303307,0.0220741,3.03648e-05,-0.000104065,0.0095599,-0.118282,2.86484e-05,0.00103954,-0.00905518
10,1,0,0,0,0,0,0,231.8,254,0,0,0,0,0,0,0,231.8,766,0,0.000273171,0.000492706,-0.000399284,0.0159378,0.00365719,0.000448379,0.000301285,0.000150719,0.0817359,0.000488129,0.00046814,0.0107043,-0.0140646,-0.000886879,4.77219e-05,-0.010047
10,2,0,0,0,0,0,0,231.8,254,0,0,0,0,0,0,0,231.8,766,0,0.0011887,0.000530853,5.84793e-05,0.0154037,0.00678524,0.000867996,0.00049202,0.000570335,-0.0591027,-0.000122223,-0.000447388,0.0118487,-0.00605377,0.000944176,0.00138287,-0.00913147
10,3,0,0,0,0,0,0,231.8,254,0,0,0,0,0,0,0,231.8,766,0,0.00157017,0.00171341,0.000897713,0.016777,0.00663265,0.000257645,0.0019416,0.000913658,0.0244392,0.000526275,0.00172699,0.013222,-0.0966147,0.000600853,0.00168804,-0.00920776
10,4,0,0,0,0,0,0,231.8,254,0,0,0,0,0,0,0,231.8,766,0,0.0005402,0.00102676,0.000706978,0.0166626,0.00808224,0.00155464,0.000263138,0.000722923,0.0992835,0.000869598,0.000735168,0.012955,0.00848022,0.0012875,0.00149731,-0.00848297
10,5,0,0,0,0,0,0,231.8,254,0,0,0,0,0,0,0,231.8,766,0,0.000883522,0.00159897,0.000592537,0.0167389,0.00617489,0.000829849,0.000263138,0.00110439,-0.0605141,0.00155624,0.00107849,0.0120013,0.0412866,0.00109676,0.000658073,-0.0081015
10,6,0,0,0,0,0,0,231.8,254,0,0,0,0,0,0,0,231.8,766,0,-0.000527916,-0.000117646,0.00055439,0.0157852,0.0047253,-4.75312e-05,7.24029e-05,-0.000268898,0.0231422,0.00140366,0.000429993,0.0130694,-0.0525168,0.000524559,-0.000295601,-0.011077
10,7,0,0,0,0,0,0,231.8,254,0,0,0,0,0,0,0,231.8,766,0,-3.20049e-05,0.00102676,0.000592537,0.0157852,0.00499233,0.00109688,0.000682754,0.000227013,0.105425,0.000793304,-0.000180359,0.0131839,0.0191232,0.000219383,0.000848808,-0.00970367
10,8,0,0,0,0,0,0,231.8,254,0,0,0,0,0,0,0,231.8,766,0,0.00115055,0.000607147,0.00143177,0.0169677,0.00491604,0.000486526,0.000568314,0.00140957,-0.0642907,0.0021666,0.00134552,0.0147479,0.0523111,0.00170712,0.00145916,-0.00878815
10,9,0,0,0,0,0,0,231.8,254,0,0,0,0,0,0,0,231.8,766,0,0.000120583,0.000378265,0.00120289,0.01651,0.00411495,0.0014402,3.42559e-05,-7.81631e-05,-0.0448357,0.000984039,0.000201111,0.0139849,-0.0559119,-0.000314674,0.000276604,-0.00825409
11,0,0,0,0,0,0,0,231.8,254,0,0,0,0,0,0,0,231.8,766,0,0.000883522,0.000683441,0.00017292,0.0156707,0.00102505,-0.000123825,-3.89107e-06,0.000570335,-0.00996941,-0.000351105,0.000201111,0.0122302,-0.0477103,0.000371971,-0.000486336,-0.00920776
11,1,0,0,0,0,0,0,231.8,254,0,0,0,0,0,0,0,231.8,766,0,0.000349465,0.000988617,0.000516243,0.0165863,0.00159725,0.000448379,0.00011055,0.000608482,0.0721992,0.00117477,0.00145996,0.0120395,-0.0444296,0.000562706,4.77219e-05,-0.00985626
11,2,0,0,0,0,0,0,231.8,254,0,0,0,0,0,0,0,231.8,766,0,0.000807228,0.000645294,0.000249214,0.0160141,0.00205502,0.00109688,0.000682754,-0.000345192,0.0107444,0.000564422,1.03759e-05,0.0133746,0.0344583,0.00151638,0.00138287,-0.0081015
11,3,0,0,0,0,0,0,231.8,254,0,0,0,0,0,0,0,231.8,766,0,0.00115055,0.000836029,0.00093586,0.0170822,-0.000348244,0.000715408,0.000835342,0.000913658,-0.0543343,0.00102219,0.00195587,0.0144046,-0.0516013,0.00155453,0.000658073,-0.00897888
11,4,0,0,0,0,0,0,231.8,254,0,0,0,0,0,0,0,231.8,766,0,0.000349465,0.000378265,0.000478096,0.0163574,0.000185814,0.000715408,-8.0185e-05,0.000227013,0.0871146,0.000869598,0.000315552,0.015549,-0.0762442,0.000791588,0.000352898,-0.00718597
11,5,0,0,0,0,0,0,231.8,254,0,0,0,0,0,0,0,231.8,766,0,-0.00110012,-0.000422821,0.00055439,0.0155944,-0.00164524,0.000257645,0.000720901,0.000570335,0.00872261,0.000526275,4.85228e-05,0.0119632,0.0222513,0.000295677,0.000848808,-0.00787262
11,6,0,0,0,0,0,0,231.8,254,0,0,0,0,0,0,0,231.8,766,0,0.000349465,0.000797882,0.000630684,0.0164337,-0.00233189,0.000677261,0.00049202,0.000303307,-0.0514733,3.03648e-05,0.000239258,0.0139849,-0.0690726,0.00117306,0.00107769,-0.00825409
11,7,0,0,0,0,0,0,231.8,254,0,0,0,0,0,0,0,231.8,766,0,0.000921669,0.000645294,0.000745125,0.0160522,-0.000462685,0.00102058,0.000339432,0.000532188,0.0988639,0.00106033,4.85228e-05,0.0153582,-0.0645712,0.000753441,0.00233654,-0.00783447
11,8,0,0,0,0,0,0,231.8,254,0,0,0,0,0,0,0,231.8,766,0,0.000997963,0.000721588,-0.000513725,0.0150604,-0.00221745,-9.38424e-06,0.00049202,3.62778e-05,0.0167335,-0.00054184,8.66698e-05,0.0129931,0.0325128,0.000562706,0.00069622,-0.0107718
11,9,0,0,0,0,0,0,231.8,254,0,0,0,0,0,0,0,231.8,766,0,0.000807228,0.0011412,0.000439949,0.0161285,-0.00149265,-0.000123825,0.000453873,0.000913658,-0.0540673,-0.000122223,0.000315552,0.0154345,-0.0397375,-0.00023838,0.000772514,-0.00924591
12,0,0,0,0,0,0,0,231.8,254,0,0,0,0,0,0,0,231.8,766,0,0.00107426,0.00110306,0.00139362,0.017044,-0.00183598,0.000410232,0.000797195,-0.000154457,0.100657,0.000373688,0.000391846,0.014786,-0.047901,0.000333824,0.00069622,-0.00768188
12,1,0,0,0,0,0,0,231.8,254,0,0,0,0,0,0,0,231.8,766,0,-7.01519e-05,-0.000537262,-0.00020855,0.0160904,0.000758019,2.87627e-05,0.000301285,-0.000192604,0.0241721,0.000411835,4.85228e-05,0.00944546,0.0566599,0.00025753,0.000734367,-0.0093985
12,2,0,0,0,0,0,0,231.8,254,0,0,0,0,0,0,0,231.8,766,0,0.000769082,0.000149383,0.000668831,0.0159378,-0.00134006,0.000143204,0.000415726,0.0010281,-0.0827157,0.000488129,-0.000104065,0.00692776,-0.00162872,-0.000200233,0.000543633,-0.00836853
12,3,0,0,0,0,0,0,231.8,254,0,0,0,0,0,0,0,231.8,766,0,0.000997963,0.00106491,0.000630684,0.0160904,-0.0027515,0.000295792,0.000301285,0.00026516,-0.0176751,0.000106659,0.000811462,0.00959804,-0.0537375,0.0012875,0.00111584,-0.00913147
12,4,0,0,0,0,0,0,231.8,254,0,0,0,0,0,0,0,231.8,766,0,0.000769082,0.000340118,0.000783272,0.016777,0.00144466,0.00128761,-0.000614243,0.000303307,0.0186027,0.00113663,0.00107849,0.0150912,-0.0149039,0.000867882,0.000162163,-0.00787262
12,5,0,0,0,0,0,0,231.8,254,0,0,0,0,0,0,0,231.8,766,0,0.000769082,0.000988617,0.00108845,0.0165863,0.00552639,0.000867996,0.00106422,0.000417748,0.0829185,0.000373688,0.000124817,0.0196688,0.0235864,0.000867882,0.000848808,-0.00821594
12,6,0,0,0,0,0,0,231.8,254,0,0,0,0,0,0,0,231.8,766,0,0.000997963,0.00095047,0.000630684,0.0158996,0.0053738,0.000219498,0.000759048,-0.00011631,-0.06307,0.00132736,0.000315552,0.0192492,0.0438806,0.00212673,0.00126843,-0.0093222
12,7,0,0,0,0,0,0,231.8,254,0,0,0,0,0,0,0,231.8,766,0,-0.000833091,0.000797882,0.00101215,0.0158996,0.00560268,0.00056282,0.000453873,-0.00011631,0.0261939,0.000602569,-0.000447388,0.0179522,-0.0755957,2.86484e-05,9.57493e-06,-0.00859741
12,8,0,0,0,0,0,0,231.8,254,0,0,0,0,0,0,0,231.8,766,0,0.000273171,0.000263824,0.00017292,0.0160141,0.00651821,-4.75312e-05,0.000301285,-0.000726662,0.0795234,0.000106659,-6.59181e-05,0.0165408,0.00996796,0.000448265,0.0010014,-0.00936035
12,9,0,0,0,0,0,0,231.8,254,0,0,0,0,0,0,0,231.8,766,0,0.000235024,-0.000766144,0.000821419,0.0163574,0.0066708,0.00113502,0.00049202,-0.000383339,-0.0612389,0.000678863,8.66698e-05,0.0150912,0.0193903,0.000791588,-0.000143013,-0.00737671
13,0,0,0,0,0,0,0,231.8,254,0,0,0,0,0,0,0,231.8,766,0,0.0005402,0.000797882,0.000897713,0.0162429,0.00953182,0.00132576,0.00098793,0.000112572,0.0261939,0.000640716,0.00058258,0.0168841,-0.0815085,0.0012112,0.00130657,-0.00878815
13,1,0,0,0,0,0,0,231.8,254,0,0,0,0,0,0,0,231.8,766,0,0.000120583,0.000874176,0.000211067,0.0168533,0.0112103,0.00117317,0.000873489,0.000799217,0.0975669,0.000793304,0.000811462,0.0163882,-0.0152472,0.00151638,0.00111584,-0.00829224
13,2,0,0,0,0,0,0,231.8,254,0,0,0,0,0,0,0,231.8,766,0,-0.000337181,0.000530853,0.0010503,0.0161285,0.0102566,0.000867996,0.000911636,-7.81631e-05,-0.0599801,0.00140366,1.03759e-05,0.0162356,0.00275818,0.00117306,0.000963249,-0.00844482
13,3,0,0,0,0,0,0,231.8,254,0,0,0,0,0,0,0,231.8,766,0,0.000845375,0.000912323,0.000516243,0.0166626,0.00758633,0.000906143,0.000720901,0.000799217,0.0245155,0.000831451,0.00134552,0.0182574,-0.106304,0.000181236,0.00168804,-0.0081778
13,4,0,0,0,0,0,0,231.8,254,0,0,0,0,0,0,0,231.8,766,0,0.000349465,0.00110306,0.00108845,0.0159378,0.00651821,0.00109688,0.000720901,0.000379601,0.105158,0.000984039,0.00115479,0.0136798,-0.0165442,0.0012112,0.000391045,-0.00966553
13,5,0,0,0,0,0,0,231.8,254,0,0,0,0,0,0,0,231.8,766,0,0.000769082,-0.000346527,0.000630684,0.0159378,0.00400051,0.000410232,-8.0185e-05,-0.000268898,-0.0643288,0.000259247,-0.000981445,0.0133746,0.0413629,2.86484e-05,-0.000295601,-0.00806335
13,6,0,0,0,0,0,0,231.8,254,0,0,0,0,0,0,0,231.8,766,0,0.000845375,0.00110306,0.0010503,0.0161666,0.00716671,0.00056282,0.00121681,0.000494041,-0.0441872,0.000526275,0.00096405,0.0152438,-0.0770834,0.00132565,0.00191692,-0.00901703
13,7,0,0,0,0,0,0,231.8,254,0,0,0,0,0,0,0,231.8,766,0,0.000921669,-3.20468e-06,0.000516243,0.0157089,0.00655636,0.00056282,7.24029e-05,7.44248e-05,-0.0100076,0.000182953,0.00130737,0.0144809,-0.0631598,0.000219383,0.00020031,-0.0081778
13,8,0,0,0,0,0,0,231.8,254,0,0,0,0,0,0,0,231.8,766,0,-0.000146446,0.000492706,-0.00020855,0.0160141,0.00625118,0.000677261,7.24029e-05,0.000150719,0.0727332,0.000755157,-0.000638123,0.0154727,-0.0119666,0.0012875,0.000543633,-0.00882629
13,9,0,0,0,0,0,0,231.8,254,0,0,0,0,0,0,0,231.8,766,0,0.000502053,-0.000232087,0.000897713,0.0160904,0.00216946,0.000105057,0.000644607,0.000455895,0.0112403,0.000678863,0.000620727,0.0148623,0.0687906,0.000524559,0.000619926,-0.00821594
14,0,0,0,0,0,0,0,231.8,254,0,0,0,0,0,0,0,231.8,766,0,6.14207e-06,0.000454559,0.000668831,0.0168914,0.00525936,0.00132576,0.00106422,-0.000535927,-0.0517785,0.00109848,0.000162964,0.0155108,-0.0256995,0.00113491,0.000810661,-0.00756744
14,1,0,0,0,0,0,0,231.8,254,0,0,0,0,0,0,0,231.8,766,0,0.000807228,-0.000232087,0.00124104,0.0171966,0.00586971,0.00113502,0.00129311,0.00106625,0.0874961,0.000411835,0.000506287,0.0137179,-0.0319937,0.00117306,0.00119213,-0.00916962
14,2,0,0,0,0,0,0,231.8,254,0,0,0,0,0,0,0,231.8,766,0,0.000235024,0.00125565,0.00131733,0.0162048,0.00674709,0.00189796,0.00117867,0.000608482,0.00956184,0.00155624,0.00046814,0.0137561,0.0631448,0.00155453,0.000429192,-0.00886444
14,3,0,0,0,0,0,0,231.8,254,0,0,0,0,0,0,0,231.8,766,0,0.000997963,0.000416412,0.000897713,0.0155563,0.00674709,0.000982437,0.000377579,0.000455895,-0.0518166,-0.000923309,1.03759e-05,0.0138324,-0.0355032,0.000982323,0.000925102,-0.00916962
14,4,0,0,0,0,0,0,231.8,254,0,0,0,0,0,0,0,231.8,766,0,-0.000146446,-3.20468e-06,0.000706978,0.0160522,0.00312313,0.000486526,0.000720901,-4.00161e-05,0.098101,0.00125107,-0.000409241,0.0125354,-0.0518301,0.00124935,-0.000524483,-0.0075293
14,5,0,0,0,0,0,0,231.8,254,0,0,0,0,0,0,0,231.8,766,0,-0.000375328,0.000645294,0.000478096,0.0149841,0.00461086,0.000257645,-4.2038e-05,0.000837364,0.0171149,0.000335541,-0.00105774,0.0114672,0.0434991,0.000333824,-0.00018116,-0.00813965
14,6,0,0,0,0,0,0,231.8,254,0,0,0,0,0,0,0,231.8,766,0,0.00153202,-0.000155793,-0.00020855,0.0166244,0.00133022,0.000372085,0.0013694,0.000608482,-0.0544106,0.00121292,0.000887756,0.0118487,-0.0433234,0.000906029,-0.000257454,-0.00836853
14,7,0,0,0,0,0,0,231.8,254,0,0,0,0,0,0,0,231.8,766,0,0.000692788,3.49423e-05,0.00017292,0.0149841,0.00331387,0.000333939,0.000377579,-1.86916e-06,0.100924,0.000182953,0.000658874,0.0142138,-0.0729254,-0.000162086,0.00069622,-0.00855927
14,8,0,0,0,0,0,0,231.8,254,0,0,0,0,0,0,0,231.8,766,0,0.000196877,0.000797882,-0.000628166,0.0157089,0.00300869,0.000524673,3.42559e-05,0.000951805,0.024668,0.000449982,-0.000104065,0.0118869,0.00966278,0.000600853,0.000505486,-0.00955109
14,9,0,0,0,0,0,0,231.8,254,0,0,0,0,0,0,0,231.8,766,0,0.000311318,0.000530853,0.00093586,0.0175781,-4.92088e-06,0.000600967,0.00133125,0.000913658,-0.0820672,0.000411835,0.00058258,0.0140231,-0.0506857,0.00147823,0.000543633,-0.00852112
15,0,0,0,0,0,0,0,231.8,254,0,0,0,0,0,0,0,231.8,766,0,0.000463906,0.000340118,0.000325508,0.0164718,-0.00286594,0.000715408,0.000148697,3.62778e-05,-0.0168359,0.00071701,-0.000371094,0.0154345,-0.111149,0.000143089,0.000848808,-0.00829224
15,1,0,0,0,0,0,0,231.8,254,0,0,0,0,0,0,0,231.8,766,0,0.000845375,0.000530853,0.000516243,0.0160522,-0.0015308,0.000295792,0.00117867,0.000570335,0.0179923,0.0002211,0.000697021,0.0161975,-0.0748709,0.00132565,-6.6719e-05,-0.00920776
15,2,0,0,0,0,0,0,231.8,254,0,0,0,0,0,0,0,231.8,766,0,-0.000642356,0.000301971,-0.00020855,0.0152893,0.00224575,2.87627e-05,-0.000232773,0.000494041,0.0818504,-0.000274811,-0.000599976,0.0145953,-0.0211218,0.000410118,-2.8572e-05,-0.00901703
15,3,0,0,0,0,0,0,231.8,254,0,0,0,0,0,0,0,231.8,766,0,-3.20049e-05,0.00125565,0.00188953,0.0159759,0.00270351,0.00121132,-0.000156479,7.44248e-05,-0.0616967,0.000793304,0.000162964,0.0148242,0.0121423,0.00117306,0.000162163,-0.00836853
15,4,0,0,0,0,0,0,231.8,254,0,0,0,0,0,0,0,231.8,766,0,0.000845375,0.00018753,0.000897713,0.0164718,0.00525936,0.00197426,0.00114052,0.000417748,0.0214256,0.000945892,0.00107849,0.0128024,-0.0722388,0.00147823,0.000429192,-0.00955109
15,5,0,0,0,0,0,0,231.8,254,0,0,0,0,0,0,0,231.8,766,0,0.000311318,0.000836029,0.000478096,0.0151748,0.00342831,0.000715408,-4.2038e-05,-0.000345192,0.0824226,-0.000198517,-0.000447388,0.0140994,0.0203058,0.000600853,0.00058178,-0.00951294
15,6,0,0,0,0,0,0,231.8,254,0,0,0,0,0,0,0,231.8,766,0,0.000387612,-0.000537262,-1.78147e-05,0.0158233,0.000262108,-4.75312e-05,0.00121681,-4.00161e-05,-0.0607812,0.00109848,-6.59181e-05,0.0156634,0.0362131,0.000791588,0.00153545,-0.00882629
15,7,0,0,0,0,0,0,231.8,254,0,0,0,0,0,0,0,231.8,766,0,-0.000184593,0.000263824,-0.000437431,0.0163192,-0.00027195,0.000257645,0.00049202,0.000799217,0.00437386,0.00128921,0.000315552,0.0123446,-0.0583914,0.000867882,0.00138287,-0.00825409
15,8,0,0,0,0,0,0,231.8,254,0,0,0,0,0,0,0,231.8,766,0,0.000311318,0.00167526,0.000859566,0.0163955,0.00232204,0.00121132,0.000186844,-0.00011631,0.0609458,0.00132736,0.000735168,0.0140231,0.0162622,0.00163082,0.000886955,-0.0081778
15,9,0,0,0,0,0,0,231.8,254,0,0,0,0,0,0,0,231.8,766,0,0.000387612,-0.000270233,0.000249214,0.0158233,0.00392422,0.000982437,0.000339432,0.00076107,-0.049566,-4.59291e-05,-0.000256653,0.015549,0.0233575,0.000791588,0.000543633,-0.00924591
16,0,0,0,0,0,0,0,231.8,254,0,0,0,0,0,0,0,231.8,766,0,-3.20049e-05,0.000492706,0.000745125,0.015213,0.00419125,0.000486526,0.00152199,0.000837364,0.0100196,0.000984039,-0.000371094,0.0150531,-0.0681952,0.00117306,-0.000791511,-0.00970367
16,1,0,0,0,0,0,0,231.8,254,0,0,0,0,0,0,0,231.8,766,0,4.4289e-05,0.000797882,0.000630684,0.0155944,0.00388607,0.000600967,0.000186844,0.000379601,0.0689185,0.000755157,0.000315552,0.0164645,0.0189325,0.000181236,0.00123028,-0.00875
16,2,0,0,0,0,0,0,231.8,254,0,0,0,0,0,0,0,231.8,766,0,0.000425759,0.000569,0.00093586,0.0172729,0.00403866,0.00105873,0.00060646,0.000875511,-0.0463616,0.00132736,-0.000409241,0.0192874,0.047619,0.000982323,0.000429192,-0.00764374
16,3,0,0,0,0,0,0,231.8,254,0,0,0,0,0,0,0,231.8,766,0,-0.000642356,-0.000117646,0.000325508,0.01651,0.00152096,0.00147835,0.000835342,0.000227013,-0.0325143,0.00071701,-0.00128662,0.0166552,-0.072048,0.000600853,0.00119213,-0.00825409
16,4,0,0,0,0,0,0,231.8,254,0,0,0,0,0,0,0,231.8,766,0,0.000692788,0.0011412,0.000668831,0.0163955,0.00049099,0.000143204,0.00117867,0.000646629,-0.00821465,0.000526275,0.00195587,0.0123065,-0.0614813,0.00109676,0.000162163,-0.00875
16,5,0,0,0,0,0,0,231.8,254,0,0,0,0,0,0,0,231.8,766,0,0.000692788,-0.000727997,0.000745125,0.0169677,0.00358089,0.000791702,3.42559e-05,0.000646629,0.0441993,0.000564422,0.00058258,0.0128024,-0.0501898,0.000486412,0.000543633,-0.00783447
16,6,0,0,0,0,0,0,231.8,254,0,0,0,0,0,0,0,231.8,766,0,-0.000146446,0.000378265,-1.78147e-05,0.0158615,0.00464901,0.00140205,0.000720901,-0.000192604,0.00933296,0.000755157,0.00046814,0.0113528,0.0211069,0.00117306,0.000772514,-0.00878815
16,7,0,0,0,0,0,0,231.8,254,0,0,0,0,0,0,0,231.8,766,0,0.000387612,-0.000270233,9.66262e-05,0.0158615,0.00304684,-0.000657883,0.000568314,-0.000230751,-0.0341546,0.00109848,0.000391846,0.013489,-0.0628928,-0.000467262,0.000543633,-0.00890259
16,8,0,0,0,0,0,0,231.8,254,0,0,0,0,0,0,0,231.8,766,0,-0.000985679,0.00106491,0.000211067,0.0155944,0.00319942,0.00128761,0.00102608,0.000188866,0.0538505,-4.59291e-05,-0.000447388,0.0167315,-0.0571707,0.000982323,0.00237469,-0.00829224
16,9,0,0,0,0,0,0,231.8,254,0,0,0,0,0,0,0,231.8,766,0,0.00122685,-3.20468e-06,0.000821419,0.0171966,0.00167355,0.000639114,0.00167458,0.00129513,0.0107825,0.000297394,0.0010022,0.0157779,0.0342294,0.00132565,0.0010014,-0.00844482
17,0,0,0,0,0,0,0,231.8,254,0,0,0,0,0,0,0,231.8,766,0,0.000502053,-0.000537262,0.000516243,0.0173492,0.00487789,0.000791702,0.00110237,0.000913658,-0.0293862,-7.78213e-06,0.00207031,0.0144427,-0.0520972,0.00182156,0.000467339,-0.00936035
17,1,0,0,0,0,0,0,231.8,254,0,0,0,0,0,0,0,231.8,766,0,0.00130314,0.000874176,-0.000513725,0.0153274,0.0048016,-8.56782e-05,0.000911636,0.000455895,0.0676597,-0.000503693,-0.00117218,0.0130313,-0.0553397,-0.000162086,-0.00018116,-0.00703339
17,2,0,0,0,0,0,0,231.8,254,0,0,0,0,0,0,0,231.8,766,0,0.00122685,0.000797882,0.000630684,0.0168151,0.00785336,0.00140205,0.00190346,0.00175289,0.0190223,6.85118e-05,-0.000104065,0.0160449,0.0541422,0.00140194,0.00119213,-0.00802521
17,3,0,0,0,0,0,0,231.8,254,0,0,0,0,0,0,0,231.8,766,0,-3.20049e-05,0.000683441,0.0010503,0.0160522,0.00655636,0.000829849,-0.000614243,0.000684776,-0.0314843,0.000945892,1.03759e-05,0.0164264,-0.0327948,0.000448265,0.00123028,-0.00813965
17,4,0,0,0,0,0,0,231.8,254,0,0,0,0,0,0,0,231.8,766,0,0.00126499,0.000759735,0.000897713,0.0166626,0.00464901,0.000867996,0.000873489,0.00152401,0.0734199,0.00113663,0.00115479,0.0191348,-0.0570181,0.00136379,0.000543633,-0.00943665
17,5,0,0,0,0,0,0,231.8,254,0,0,0,0,0,0,0,231.8,766,0,-0.000146446,0.000912323,0.00093586,0.0164337,0.00926479,0.000715408,0.00125496,0.00076107,0.0242103,0.000678863,0.00145996,0.0179904,0.0545236,0.000562706,4.77219e-05,-0.00878815
17,6,0,0,0,0,0,0,231.8,254,0,0,0,0,0,0,0,231.8,766,0,0.000654641,0.001866,0.00093586,0.0163574,0.00255093,0.000867996,0.00049202,0.000303307,-0.0504433,-0.000274811,0.00107849,0.0179522,-0.00403198,0.000639,0.00149731,-0.00852112
17,7,0,0,0,0,0,0,231.8,254,0,0,0,0,0,0,0,231.8,766,0,0.000387612,-0.000384674,0.00131733,0.0172348,0.00049099,0.000829849,0.00182716,0.00026516,-0.00600212,0.00163254,0.000925903,0.0173037,-0.069187,0.00144009,0.000314751,-0.0081778
17,8,0,0,0,0,0,0,231.8,254,0,0,0,0,0,0,0,231.8,766,0,0.00130314,0.00095047,-0.000399284,0.0162811,-0.000195656,0.00151649,0.000720901,0.00076107,0.0227988,0.00109848,0.000315552,0.0168841,-0.0508383,0.000600853,0.00149731,-0.00821594
17,9,0,0,0,0,0,0,231.8,254,0,0,0,0,0,0,0,231.8,766,0,6.14207e-06,-0.000117646,0.000668831,0.0173111,0.00133022,0.000791702,0.00110237,-0.00099369,0.139719,0.000182953,4.85228e-05,0.013222,-0.013645,0.000562706,-0.00018116,-0.00951294
18,0,0,0,0,0,0,0,231.8,254,0,0,0,0,0,0,0,231.8,766,0,0.00141758,0.000530853,0.000783272,0.0168151,0.00506863,0.00113502,0.00060646,0.00213436,0.152537,0.00167068,0.000544433,0.0123828,0.00233856,0.00159267,0.000467339,-0.00840668
18,1,0,0,0,0,0,0,231.8,254,0,0,0,0,0,0,0,231.8,766,0,-0.000184593,0.00129379,0.00116474,0.016777,0.00411495,0.00105873,0.000415726,0.000684776,0.125643,0.000259247,0.00058258,0.0153582,-0.113247,0.0012112,0.00138287,-0.00863556
18,2,0,0,0,0,0,0,231.8,254,0,0,0,0,0,0,0,231.8,766,0,0.000692788,-0.000727997,-0.000895195,0.0161285,0.00327572,0.000524673,0.000415726,0.000722923,0.0370658,0.000373688,-0.000599976,0.0149768,-0.0304297,0.00109676,0.00107769,-0.00844482
18,3,0,0,0,0,0,0,231.8,254,0,0,0,0,0,0,0,231.8,766,0,0.000273171,0.000721588,-0.00020855,0.0158996,0.00422939,0.000639114,0.000644607,0.00118069,-0.0970208,0.0002211,0.000773315,0.0148242,-0.0173071,0.00102047,0.00149731,-0.00970367
18,4,0,0,0,0,0,0,231.8,254,0,0,0,0,0,0,0,231.8,766,0,0.00168461,0.000607147,0.000706978,0.0166244,0.00380978,0.00132576,0.00148384,0.00114254,-0.0179421,0.00125107,0.000544433,0.0165026,-0.114124,0.00113491,-0.00018116,-0.00936035
18,5,0,0,0,0,0,0,231.8,254,0,0,0,0,0,0,0,231.8,766,0,0.000578347,0.000836029,0.000745125,0.0165863,0.00518307,-0.000123825,0.000453873,0.000455895,0.0354636,0.00109848,0.00149811,0.0113528,-0.0256995,0.000600853,0.00153545,-0.00798706
18,6,0,0,0,0,0,0,231.8,254,0,0,0,0,0,0,0,231.8,766,0,0.00115055,0.0012175,0.000706978,0.0161666,0.00613674,0.000410232,0.000415726,0.000417748,-0.0763833,0.000984039,0.000277405,0.0134127,0.00649658,0.000982323,0.00134472,-0.00844482
18,7,0,0,0,0,0,0,231.8,254,0,0,0,0,0,0,0,231.8,766,0,0.000845375,0.000797882,0.00120289,0.0170059,0.00422939,0.00109688,0.0020179,0.000722923,-0.0143182,-0.000274811,0.000697021,0.0152056,-0.0829962,0.000333824,0.00130657,-0.00787262
18,8,0,0,0,0,0,0,231.8,254,0,0,0,0,0,0,0,231.8,766,0,0.000807228,0.000454559,0.00116474,0.0169677,0.00358089,0.000982437,0.00159828,0.000341454,0.0487769,0.000335541,-6.59181e-05,0.0164264,0.0199243,0.000944176,0.00126843,-0.00813965
18,9,0,0,0,0,0,0,231.8,254,0,0,0,0,0,0,0,231.8,766,0,0.000883522,-0.000422821,0.000401802,0.0155563,0.00247463,2.87627e-05,0.000186844,0.000799217,-0.0688302,-0.000579987,0.00058258,0.0124972,0.0585672,0.000143089,0.00103954,-0.00836853
19,0,0,0,0,0,0,0,231.8,254,0,0,0,0,0,0,0,231.8,766,0,0.000959816,0.000874176,-0.00032299,0.0168533,0.00571712,0.000486526,0.00133125,0.0010281,-0.0510537,0.000945892,0.000429993,0.00994137,-0.0581625,0.0012112,0.000543633,-0.0081015
19,1,0,0,0,0,0,0,231.8,254,0,0,0,0,0,0,0,231.8,766,0,8.2436e-05,0.000874176,0.000668831,0.0166626,0.00442013,0.000715408,0.000148697,-0.000230751,-0.026983,0.000144806,-0.000104065,0.0111239,-0.0392798,0.000181236,0.000886955,-0.00852112
19,2,0,0,0,0,0,0,231.8,254,0,0,0,0,0,0,0,231.8,766,0,0.000883522,0.00140823,0.000211067,0.0164337,0.00907406,0.000982437,-0.000156479,-0.000535927,0.0277961,3.03648e-05,0.000925903,0.0105899,-0.0161246,0.000410118,-0.00102039,-0.00760559
19,3,0,0,0,0,0,0,231.8,254,0,0,0,0,0,0,0,231.8,766,0,-0.000108299,0.000797882,0.00093586,0.0162429,0.00892147,0.000791702,0.00129311,-0.000268898,-0.00516289,0.000373688,0.00123108,0.0122302,0.0582239,0.000677147,0.00119213,-0.00901703
19,4,0,0,0,0,0,0,231.8,254,0,0,0,0,0,0,0,231.8,766,0,0.00015873,-0.000537262,-0.000475578,0.0163955,0.0079678,0.000600967,0.000453873,0.000150719,-0.0452554,0.000488129,-0.000943298,0.0153964,-0.0210837,0.000371971,0.000658073,-0.00840668
19,5,0,0,0,0,0,0,231.8,254,0,0,0,0,0,0,0,231.8,766,0,0.000692788,0.000340118,0.000478096,0.0166244,0.00556454,0.00117317,0.000224991,0.000684776,0.044123,0.000488129,0.000773315,0.0171893,-0.0436667,0.00025753,0.000734367,-0.00859741
19,6,0,0,0,0,0,0,231.8,254,0,0,0,0,0,0,0,231.8,766,0,0.000273171,0.000416412,0.000630684,0.0161285,0.00728115,0.00163094,0.000644607,0.000684776,0.00284798,0.000106659,0.000697021,0.0160067,0.0367853,0.00124935,0.000467339,-0.00821594
19,7,0,0,0,0,0,0,231.8,254,0,0,0,0,0,0,0,231.8,766,0,0.00145573,0.000416412,0.000821419,0.0169296,0.00766262,-4.75312e-05,0.00133125,0.0010281,-0.0356423,0.0002211,0.0010022,0.0168841,-0.0665167,0.000639,0.00069622,-0.00875
19,8,0,0,0,0,0,0,231.8,254,0,0,0,0,0,0,0,231.8,766,0,8.2436e-05,-0.000155793,-0.000551872,0.0162811,0.00506863,0.000105057,0.000148697,-0.000535927,0.0614799,-0.000732575,-0.000790711,0.0151675,-0.0659064,-0.000276527,0.000276604,-0.00840668
19,9,0,0,0,0,0,0,231.8,254,0,0,0,0,0,0,0,231.8,766,0,0.000845375,0.000340118,-0.00032299,0.0158996,0.00625118,0.000410232,0.000301285,0.000837364,0.014025,6.85118e-05,0.00153625,0.0117724,0.036709,0.000219383,0.00123028,-0.00718597
20,0,0,0,0,0,0,0,231.8,254,0,0,0,0,0,0,0,231.8,766,0,0.00153202,0.000454559,0.000592537,0.0164337,0.00743374,0.000677261,0.00186531,0.000379601,-0.0350701,0.000449982,1.03759e-05,0.00940731,-0.0547675,0.00136379,0.000543633,-0.00794891
20,1,0,0,0,0,0,0,231.8,254,0,0,0,0,0,0,0,231.8,766,0,0.000273171,0.000111236,0.0010503,0.0152511,0.00773891,0.000524673,0.000759048,0.000303307,0.070864,-0.000579987,-0.000828858,0.0148242,-0.0725439,0.000104942,0.00123028,-0.00783447
20,2,0,0,0,0,0,0,231.8,254,0,0,0,0,0,0,0,231.8,766,0,-0.000337181,0.000378265,-0.000246697,0.0161285,0.00617489,0.00056282,3.42559e-05,0.0010281,0.0227225,-4.59291e-05,0.000315552,0.0139468,0.027897,0.000181236,-0.000486336,-0.00909332
20,3,0,0,0,0,0,0,231.8,254,0,0,0,0,0,0,0,231.8,766,0,0.0005402,0.000530853,0.000897713,0.016777,0.0078915,0.00147835,0.000682754,0.000532188,-0.0509011,0.0021666,0.00123108,0.0148242,-0.0236014,-0.000657997,0.000886955,-0.00657562
20,4,0,0,0,0,0,0,231.8,254,0,0,0,0,0,0,0,231.8,766,0,0.000807228,0.000836029,0.000134773,0.0164718,0.00956997,0.000333939,0.00102608,0.000684776,-0.00600212,0.000526275,0.000735168,0.0146716,-0.0660208,-0.000657997,0.00149731,-0.00833038
20,5,0,0,0,0,0,0,231.8,254,0,0,0,0,0,0,0,231.8,766,0,0.000769082,0.000301971,0.00055439,0.0163574,0.00812038,0.00056282,0.000911636,-4.00161e-05,0.0141013,0.00102219,0.000162964,0.0168841,-0.0208167,0.000791588,0.00020031,-0.00951294
20,6,0,0,0,0,0,0,231.8,254,0,0,0,0,0,0,0,231.8,766,0,0.000196877,0.000721588,0.00177509,0.0165481,0.00815853,0.00163094,0.000148697,0.00076107,0.0594962,0.000526275,0.000620727,0.0147097,0.0386163,0.000982323,0.00229839,-0.00760559
20,7,0,0,0,0,0,0,231.8,254,0,0,0,0,0,0,0,231.8,766,0,0.000692788,-0.000460968,-0.000437431,0.0159378,0.00804409,0.000257645,0.000301285,-1.86916e-06,-0.0315224,0.000335541,-0.000447388,0.0123828,0.0489923,-9.49856e-06,-0.000104866,-0.00798706
20,8,0,0,0,0,0,0,231.8,254,0,0,0,0,0,0,0,231.8,766,0,0.00137943,0.000683441,0.000706978,0.0162429,0.00857815,0.00170723,0.00159828,0.000684776,0.0149787,0.000526275,0.000506287,0.0131076,-0.0566748,0.00105862,0.000314751,-0.00863556
20,9,0,0,0,0,0,0,231.8,254,0,0,0,0,0,0,0,231.8,766,0,0.000692788,0.000569,0.000287361,0.0160522,0.00693783,0.000105057,0.00102608,0.00114254,0.0574363,3.03648e-05,0.000391846,0.0131457,0.0314066,-0.000314674,0.00134472,-0.00779633
21,0,0,0,0,0,0,0,231.8,254,0,0,0,0,0,0,0,231.8,766,0,0.000120583,-0.000117646,0.000287361,0.0156326,0.00594601,0.000753555,0.00060646,-0.000192604,-0.0293862,0.00117477,0.000201111,0.0131839,0.0222513,0.000944176,-0.000295601,-0.00829224
21,1,0,0,0,0,0,0,231.8,254,0,0,0,0,0,0,0,231.8,766,0,0.000616494,0.0017897,0.000668831,0.0171203,0.00575527,0.00170723,0.00152199,0.000227013,0.0221122,3.03648e-05,0.000697021,0.0141757,-0.0761679,0.000371971,0.000810661,-0.00722412
21,2,0,0,0,0,0,0,231.8,254,0,0,0,0,0,0,0,231.8,766,0,8.2436e-05,7.30893e-05,2.03323e-05,0.0157089,0.00529751,0.00102058,0.00060646,-0.000192604,0.0709403,0.000335541,1.03759e-05,0.0136416,0.0185129,0.000486412,0.000467339,-0.00882629
21,3,0,0,0,0,0,0,231.8,254,0,0,0,0,0,0,0,231.8,766,0,0.000349465,0.000836029,-5.59617e-05,0.0163955,0.00262722,0.00102058,0.000797195,0.000989952,-0.0314843,-4.59291e-05,-2.77711e-05,0.0123065,0.0138208,0.00105862,0.00107769,-0.00760559
21,4,0,0,0,0,0,0,231.8,254,0,0,0,0,0,0,0,231.8,766,0,0.0011887,0.00201858,0.00150806,0.0161285,0.00167355,0.00128761,0.00121681,0.000608482,0.0221122,0.000411835,0.000277405,0.0118487,-0.0913886,0.00163082,0.00210766,-0.00855927
21,5,0,0,0,0,0,0,231.8,254,0,0,0,0,0,0,0,231.8,766,0,0.000997963,0.000683441,0.000363655,0.0162811,-0.000462685,0.00113502,0.00049202,0.000455895,0.0789893,0.000907745,0.000353699,0.0133364,-0.0317648,-0.000467262,0.000886955,-0.00890259
21,6,0,0,0,0,0,0,231.8,254,0,0,0,0,0,0,0,231.8,766,0,-7.01519e-05,-3.20468e-06,-9.41086e-05,0.0158615,0.00255093,-0.000123825,0.000720901,-1.86916e-06,-0.0361764,0.000488129,-0.000180359,0.0131839,-0.00731262,0.000219383,-0.000257454,-0.00836853
21,7,0,0,0,0,0,0,231.8,254,0,0,0,0,0,0,0,231.8,766,0,-0.000375328,0.000416412,0.00139362,0.0160522,-0.000538978,0.00056282,0.000301285,-0.000230751,-0.0252282,0.000945892,0.00104034,0.0134509,-0.110844,-0.000429115,0.000925102,-0.00913147
21,8,0,0,0,0,0,0,231.8,254,0,0,0,0,0,0,0,231.8,766,0,-3.20049e-05,3.49423e-05,-0.000399284,0.0162811,0.000529137,0.000295792,0.000911636,0.000227013,-0.00123375,0.000755157,0.000201111,0.0160067,-0.0815466,0.000448265,-0.000371895,-0.00825409
21,9,0,0,0,0,0,0,231.8,254,0,0,0,0,0,0,0,231.8,766,0,0.000845375,0.000263824,0.00055439,0.0155944,0.00403866,0.00132576,0.00049202,0.00076107,0.0797523,0.00193771,0.000849609,0.0192874,-0.0461844,0.000104942,0.000658073,-0.00848297
22,0,0,0,0,0,0,0,231.8,254,0,0,0,0,0,0,0,231.8,766,0,0.000425759,-3.20468e-06,-9.41086e-05,0.0157089,0.00262722,0.000486526,0.000949783,3.62778e-05,0.16276,-8.40761e-05,0.000735168,0.0205844,0.0426218,-0.000200233,0.000886955,-0.00878815
22,1,0,0,0,0,0,0,231.8,254,0,0,0,0,0,0,0,231.8,766,0,0.000807228,0.000378265,0.00127918,0.0160522,-0.00427738,0.00109688,0.00060646,-0.000650368,0.13827,0.00224289,1.03759e-05,0.0202029,-0.0284842,0.000448265,0.00142101,-0.00875
22,2,0,0,0,0,0,0,231.8,254,0,0,0,0,0,0,0,231.8,766,0,0.00198978,0.000263824,0.000859566,0.0171585,-0.00126377,0.00113502,0.00159828,0.000494041,0.099665,0.000182953,0.000658874,0.0221484,-0.0208929,0.00117306,0.000162163,-0.00829224
22,3,0,0,0,0,0,0,231.8,254,0,0,0,0,0,0,0,231.8,766,0,-0.000108299,-0.000117646,0.000897713,0.0148697,-0.00263706,0.000295792,0.00110237,-0.000345192,-0.0457131,0.00102219,-0.0002948,0.0187915,0.0672647,0.000906029,0.000238457,-0.00890259
22,4,0,0,0,0,0,0,231.8,254,0,0,0,0,0,0,0,231.8,766,0,-0.000337181,0.00095047,0.000706978,0.015747,-0.0021793,0.00056282,0.000873489,-0.000345192,-0.080732,-0.000274811,0.000201111,0.0179522,-0.0176886,0.000867882,0.00130657,-0.00878815
22,5,0,0,0,0,0,0,231.8,254,0,0,0,0,0,0,0,231.8,766,0,0.000959816,0.000836029,0.00055439,0.0155182,-0.000958595,0.000105057,0.000797195,0.000837364,0.0344337,0.00197586,0.000201111,0.0181811,-0.035694,0.000906029,0.000467339,-0.00951294
22,6,0,0,0,0,0,0,231.8,254,0,0,0,0,0,0,0,231.8,766,0,-3.20049e-05,0.000263824,0.00108845,0.0160904,-0.00366703,0.000372085,0.000339432,-1.86916e-06,-0.0228631,0.00117477,-0.000447388,0.010895,0.0452539,-0.000200233,-0.000638924,-0.00749115
22,7,0,0,0,0,0,0,231.8,254,0,0,0,0,0,0,0,231.8,766,0,-0.000871238,-0.000117646,-9.41086e-05,0.015747,-0.000577125,0.000448379,7.24029e-05,-0.000688515,-0.0736749,0.000335541,-0.000218506,0.00872066,-0.0437811,0.000867882,0.000238457,-0.00909332
22,8,0,0,0,0,0,0,231.8,254,0,0,0,0,0,0,0,231.8,766,0,0.000425759,0.000454559,0.000134773,0.015747,-0.00118748,-0.000238266,0.00049202,0.00026516,0.0415672,0.00136551,-0.000714417,0.0124591,-0.0473288,-0.000123939,0.000543633,-0.0081778
22,9,0,0,0,0,0,0,231.8,254,0,0,0,0,0,0,0,231.8,766,0,0.0005402,0.00117935,0.000783272,0.0167007,0.00113949,0.000867996,0.000148697,3.62778e-05,-0.00657433,0.00136551,0.00096405,0.0112384,0.0507089,0.00105862,0.00020031,-0.00726227
23,0,0,0,0,0,0,0,231.8,254,0,0,0,0,0,0,0,231.8,766,0,0.00172276,0.00117935,0.000516243,0.017807,0.00445827,0.00109688,0.000377579,0.00114254,-0.0811898,0.00136551,0.00046814,0.0107043,-0.0385168,0.000562706,0.000276604,-0.0081778
23,1,0,0,0,0,0,0,231.8,254,0,0,0,0,0,0,0,231.8,766,0,0.000425759,0.000492706,0.000706978,0.0163192,0.00468716,0.000524673,0.000835342,-0.00011631,-0.031675,0.000755157,1.03759e-05,0.0114672,-0.109432,0.000333824,-2.8572e-05,-0.00840668
23,2,0,0,0,0,0,0,231.8,254,0,0,0,0,0,0,0,231.8,766,0,0.000807228,0.000530853,0.00101215,0.0170059,0.00575527,0.000982437,0.00049202,0.000646629,-0.00958794,0.000182953,0.000658874,0.0114291,-0.0720862,0.00117306,0.000925102,-0.00794891
23,3,0,0,0,0,0,0,231.8,254,0,0,0,0,0,0,0,231.8,766,0,-0.000299034,0.000759735,0.000706978,0.0164337,0.0060223,0.00113502,0.000873489,0.000494041,0.0358451,0.00128921,0.000429993,0.0126117,-0.0247076,0.000944176,0.00020031,-0.00798706
23,4,0,0,0,0,0,0,231.8,254,0,0,0,0,0,0,0,231.8,766,0,-0.000375328,0.0012175,0.00017292,0.0153274,0.00339016,0.000791702,0.000148697,0.000532188,-0.0515115,0.000488129,-0.000142212,0.0181048,0.00611511,0.000944176,0.000886955,-0.00966553
23,5,0,0,0,0,0,0,231.8,254,0,0,0,0,0,0,0,231.8,766,0,6.14207e-06,0.00018753,-9.41086e-05,0.0163574,0.00525936,0.000105057,0.000759048,3.62778e-05,0.00136025,3.03648e-05,0.000239258,0.0181811,-0.0981024,0.000448265,0.00069622,-0.00825409
23,6,0,0,0,0,0,0,231.8,254,0,0,0,0,0,0,0,231.8,766,0,0.00168461,0.00106491,0.000706978,0.0160522,0.00861629,0.00163094,0.000720901,0.00076107,0.0448096,0.00228104,0.000162964,0.0194781,0.0111505,0.000524559,-0.00102039,-0.00863556
23,7,0,0,0,0,0,0,231.8,254,0,0,0,0,0,0,0,231.8,766,0,0.000387612,0.00140823,0.000401802,0.0163192,0.00678524,0.00102058,0.00159828,0.000989952,-0.0415551,0.00106033,0.00161255,0.0169223,0.0236627,0.00166897,0.000772514,-0.00909332
23,8,0,0,0,0,0,0,231.8,254,0,0,0,0,0,0,0,231.8,766,0,0.000463906,0.000378265,0.000363655,0.0157852,0.00377163,0.000372085,0.000453873,7.44248e-05,0.0117744,0.00106033,-0.00155365,0.014519,-0.063465,0.000639,8.58689e-05,-0.00802521
23,9,0,0,0,0,0,0,231.8,254,0,0,0,0,0,0,0,231.8,766,0,0.000273171,-0.000460968,0.000401802,0.0162811,0.00541195,0.000715408,0.000759048,0.000227013,0.0646079,0.000907745,0.0015744,0.0166934,0.0290796,0.000371971,0.00058178,-0.00852112
24,0,0,0,0,0,0,0,231.8,254,0,0,0,0,0,0,0,231.8,766,0,-3.20049e-05,0.000225677,5.84793e-05,0.0156707,0.00693783,0.000372085,0.000148697,0.000417748,-0.038923,0.000259247,-0.000943298,0.0140994,0.0452539,0.00113491,0.000886955,-0.00913147
24,1,0,0,0,0,0,0,231.8,254,0,0,0,0,0,0,0,231.8,766,0,0.000502053,0.000454559,0.000439949,0.0157852,0.00640377,-4.75312e-05,0.000873489,0.00106625,0.0162376,0.00125107,0.000544433,0.0107806,-0.0594595,0.000906029,0.000314751,-0.00791077
24,2,0,0,0,0,0,0,231.8,254,0,0,0,0,0,0,0,231.8,766,0,0.000235024,-3.20468e-06,2.03323e-05,0.0161285,0.00812038,0.000105057,0.000835342,0.000455895,0.0747169,0.000755157,-2.77711e-05,0.014786,0.0129434,0.000143089,0.0010014,-0.0100851
24,3,0,0,0,0,0,0,231.8,254,0,0,0,0,0,0,0,231.8,766,0,0.0005402,0.00133194,0.00139362,0.0177688,0.012698,0.00109688,0.000415726,0.00125698,-0.0385796,0.00125107,0.00153625,0.0143283,0.0535318,0.000791588,0.000467339,-0.00985626
24,4,0,0,0,0,0,0,231.8,254,0,0,0,0,0,0,0,231.8,766,0,0.0005402,0.00125565,0.000783272,0.0163955,0.00648006,0.000715408,-0.000156479,-0.000574074,-0.0246178,0.00155624,-0.000218506,0.0136798,-0.0668982,0.000600853,0.000658073,-0.00794891
24,5,0,0,0,0,0,0,231.8,254,0,0,0,0,0,0,0,231.8,766,0,0.000692788,0.000263824,0.000516243,0.0165863,0.00613674,0.000906143,0.000377579,-7.81631e-05,-0.00268333,0.000869598,0.00161255,0.014519,-0.0514105,0.00151638,0.000848808,-0.00936035
24,6,0,0,0,0,0,0,231.8,254,0,0,0,0,0,0,0,231.8,766,0,0.000769082,0.000912323,0.00166065,0.0165481,0.00251278,0.000333939,0.00129311,-0.000154457,0.0801337,0.00186142,0.000849609,0.0132602,-0.0314215,0.000410118,0.000276604,-0.00833038
24,7,0,0,0,0,0,0,231.8,254,0,0,0,0,0,0,0,231.8,766,0,0.000425759,0.00163712,0.000516243,0.0164718,0.00380978,0.000829849,-0.000232773,0.000570335,0.162836,0.000182953,0.000773315,0.0144427,0.0388452,0.0018597,-0.000295601,-0.00947479
24,8,0,0,0,0,0,0,231.8,254,0,0,0,0,0,0,0,231.8,766,0,0.000387612,0.000988617,0.00124104,0.017044,0.00609859,0.000791702,0.00140755,0.000417748,0.137545,0.00262436,0.00161255,0.0147097,-0.0693396,0.00159267,0.00107769,-0.00730042
24,9,0,0,0,0,0,0,231.8,254,0,0,0,0,0,0,0,231.8,766,0,-0.000375328,0.000492706,0.000821419,0.0167389,0.00579342,0.00109688,0.000148697,0.000150719,0.0995124,0.000449982,0.000162964,0.0156634,-0.0802878,0.000753441,-2.8572e-05,-0.00791077
25,0,0,0,0,0,0,0,231.8,254,0,0,0,0,0,0,0,231.8,766,0,0.00015873,-0.000117646,-9.41086e-05,0.0156707,0.00178799,0.000486526,0.000682754,0.00026516,-0.0436913,-0.00016037,0.000315552,0.0136416,0.0142023,0.000982323,0.00111584,-0.00974182
25,1,0,0,0,0,0,0,231.8,254,0,0,0,0,0,0,0,231.8,766,0,0.000807228,0.000836029,0.000897713,0.0161285,0.00354275,0.00102058,0.00121681,0.000494041,-0.0785958,0.00189957,-0.000638123,0.0103228,-0.0620535,0.00105862,0.00134472,-0.0075293
25,2,0,0,0,0,0,0,231.8,254,0,0,0,0,0,0,0,231.8,766,0,0.000235024,0.0011412,0.000363655,0.0172729,0.0047253,0.000753555,0.000759048,3.62778e-05,0.0369895,0.00113663,0.00142181,0.0122302,-0.0543097,0.00109676,0.000429192,-0.00958923
25,3,0,0,0,0,0,0,231.8,254,0,0,0,0,0,0,0,231.8,766,0,0.000845375,0.000340118,0.000211067,0.0161285,0.00632748,0.000410232,0.000224991,-0.000459633,-0.0199258,0.00147995,0.000201111,0.0118487,0.043194,0.0012875,0.00020031,-0.00878815
25,4,0,0,0,0,0,0,231.8,254,0,0,0,0,0,0,0,231.8,766,0,0.000273171,0.000492706,0.000211067,0.01651,0.00934109,0.00109688,0.000911636,-1.86916e-06,-0.0704705,0.000984039,0.00153625,0.0136798,-0.0151709,0.00124935,0.000772514,-0.00836853
25,5,0,0,0,0,0,0,231.8,254,0,0,0,0,0,0,0,231.8,766,0,0.00115055,0.00110306,0.0010503,0.0157852,0.00728115,0.00094429,0.00175087,0.000570335,0.0446189,0.00071701,0.00104034,0.010628,-0.0333289,0.00216488,-0.000333748,-0.0093985
25,6,0,0,0,0,0,0,231.8,254,0,0,0,0,0,0,0,231.8,766,0,-0.000260887,0.000340118,0.000516243,0.0159759,0.00709042,0.000372085,0.000415726,0.000532188,-0.00516289,0.000945892,0.000391846,0.00669888,0.0741312,0.000333824,-0.000677071,-0.00916962
25,7,0,0,0,0,0,0,231.8,254,0,0,0,0,0,0,0,231.8,766,0,0.000311318,0.00102676,0.000745125,0.0156326,0.00716671,0.000906143,0.000797195,-7.81631e-05,-0.0774514,0.00155624,4.85228e-05,0.00837734,-0.00361237,0.00159267,0.00111584,-0.00897888
25,8,0,0,0,0,0,0,231.8,254,0,0,0,0,0,0,0,231.8,766,0,0.000616494,0.00133194,-0.000590019,0.0166626,0.00598415,0.000448379,0.000759048,0.000150719,-0.0290429,0.00128921,-0.000371094,0.0128024,-0.0732687,0.000219383,8.58689e-05,-0.00878815
25,9,0,0,0,0,0,0,231.8,254,0,0,0,0,0,0,0,231.8,766,0,0.00160831,0.0012175,0.000630684,0.0165863,0.00857815,0.000829849,0.00125496,0.000913658,-0.00642174,0.000564422,0.00058258,0.0151675,-0.0335577,0.00166897,0.00058178,-0.00779633
26,0,0,0,0,0,0,0,231.8,254,0,0,0,0,0,0,0,231.8,766,0,0.000273171,0.000683441,0.00093586,0.0164337,0.00655636,6.69097e-05,0.00117867,0.000989952,0.0387443,0.00106033,4.85228e-05,0.014252,0.00619141,-8.57925e-05,0.00233654,-0.00840668
26,1,0,0,0,0,0,0,231.8,254,0,0,0,0,0,0,0,231.8,766,0,0.000769082,-0.000155793,0.000325508,0.0157852,0.00693783,0.000257645,0.00106422,0.00026516,-0.0484597,0.000488129,-0.000142212,0.0143664,0.00935761,0.00113491,-6.6719e-05,-0.00855927
26,2,0,0,0,0,0,0,231.8,254,0,0,0,0,0,0,0,231.8,766,0,0.00115055,0.0011412,0.000783272,0.0164718,0.00682339,0.00105873,-3.89107e-06,0.00118069,0.0037635,0.000793304,0.000735168,0.0233691,-0.0993613,0.000448265,0.00176434,-0.00756744
26,3,0,0,0,0,0,0,231.8,254,0,0,0,0,0,0,0,231.8,766,0,0.000769082,7.30893e-05,-0.000132256,0.0162811,0.00392422,0.00056282,0.000530167,-0.000268898,0.0455344,-0.000465546,-0.000752564,0.0196307,-0.00212463,-0.000162086,-0.000677071,-0.010047
26,4,0,0,0,0,0,0,231.8,254,0,0,0,0,0,0,0,231.8,766,0,0.000120583,-0.000117646,0.000363655,0.0164337,0.00922665,2.87627e-05,0.00121681,-0.000268898,-0.0383126,0.00071701,0.000315552,0.0220721,-0.00796112,0.000410118,0.000925102,-0.00848297
26,5,0,0,0,0,0,0,231.8,254,0,0,0,0,0,0,0,231.8,766,0,0.000196877,0.00140823,0.0016988,0.0177307,0.00712856,0.00132576,0.00148384,-4.00161e-05,0.0142539,0.00121292,0.00176514,0.021538,-0.113972,0.00136379,0.00252728,-0.00936035
26,6,0,0,0,0,0,0,231.8,254,0,0,0,0,0,0,0,231.8,766,0,6.14207e-06,0.000454559,0.0010503,0.0168533,0.00297054,0.00102058,0.00060646,0.000989952,0.0655235,0.00132736,0.000925903,0.0151294,-0.0341681,0.000143089,0.000963249,-0.00791077
26,7,0,0,0,0,0,0,231.8,254,0,0,0,0,0,0,0,231.8,766,0,-0.000451622,0.0017897,0.00112659,0.017044,0.00495419,0.00155464,0.00125496,-0.000230751,-0.036329,0.00128921,0.00096405,0.0169223,-0.0025061,0.00163082,0.00115398,-0.00913147
26,8,0,0,0,0,0,0,231.8,254,0,0,0,0,0,0,0,231.8,766,0,0.000502053,0.000912323,-0.000284843,0.0159378,0.00392422,0.000143204,0.000148697,0.000570335,0.0177253,-0.000122223,-0.000180359,0.0155108,-0.108898,0.000448265,0.00107769,-0.00936035
26,9,0,0,0,0,0,0,231.8,254,0,0,0,0,0,0,0,231.8,766,0,0.000883522,0.000874176,0.000516243,0.0168533,0.0029324,0.00117317,0.00148384,0.000799217,0.076052,0.00178513,0.00107849,0.0190966,-0.0176505,0.00205044,0.00145916,-0.00821594
27,0,0,0,0,0,0,0,231.8,254,0,0,0,0,0,0,0,231.8,766,0,0.000845375,-0.000155793,-1.78147e-05,0.0158615,0.00312313,0.000829849,0.00049202,0.000532188,-0.037893,-7.78213e-06,-0.000256653,0.0176471,0.0426599,0.000562706,0.000963249,-0.00764374
27,1,0,0,0,0,0,0,231.8,254,0,0,0,0,0,0,0,231.8,766,0,0.0011887,0.000416412,0.00093586,0.0164337,0.00262722,0.000372085,0.00121681,0.000112572,-0.0247704,0.00128921,0.00046814,0.0150912,-0.0553397,0.000867882,0.00119213,-0.00730042
27,2,0,0,0,0,0,0,231.8,254,0,0,0,0,0,0,0,231.8,766,0,0.000845375,0.00140823,0.0010503,0.0158233,0.00304684,-0.000123825,0.000682754,0.00110439,-0.00199669,0.000106659,0.000544433,0.015549,-0.0345496,-0.000352821,0.00153545,-0.00943665
27,3,0,0,0,0,0,0,231.8,254,0,0,0,0,0,0,0,231.8,766,0,0.000578347,0.000340118,0.000363655,0.017044,0.00197872,0.000753555,0.00049202,0.000379601,0.0496925,0.00132736,0.000811462,0.0135653,-0.00799927,0.000944176,0.000925102,-0.00875
27,4,0,0,0,0,0,0,231.8,254,0,0,0,0,0,0,0,231.8,766,0,0.00103611,-0.000270233,0.00143177,0.0171203,0.00148281,0.00056282,0.00102608,0.000455895,0.0141013,0.000411835,0.00153625,0.0153964,0.0599023,0.000639,0.00119213,-0.00779633
27,5,0,0,0,0,0,0,231.8,254,0,0,0,0,0,0,0,231.8,766,0,0.000502053,0.000263824,-0.000170403,0.0160904,-8.12148e-05,0.000257645,0.000148697,0.000303307,-0.0284325,0.000297394,0.000506287,0.0128787,-0.0221136,-0.000276527,0.00203136,-0.00897888
27,6,0,0,0,0,0,0,231.8,254,0,0,0,0,0,0,0,231.8,766,0,0.00141758,0.000645294,0.000859566,0.0158615,-0.00103489,0.000867996,0.00060646,0.000379601,0.0572837,0.00113663,0.000697021,0.0105517,-0.0371436,0.00136379,-2.8572e-05,-0.00772003
27,7,0,0,0,0,0,0,231.8,254,0,0,0,0,0,0,0,231.8,766,0,0.000387612,0.000988617,0.00120289,0.0171585,-0.00076786,-4.75312e-05,0.000530167,0.000989952,0.0145972,0.000373688,0.00046814,0.0100558,0.0503275,-4.76455e-05,0.00123028,-0.00951294
27,8,0,0,0,0,0,0,231.8,254,0,0,0,0,0,0,0,231.8,766,0,-0.000108299,0.00018753,-1.78147e-05,0.0158996,-0.00076786,0.000600967,0.000835342,0.000112572,-0.0258004,0.000640716,0.00130737,0.0128405,-0.0533179,0.00117306,0.000391045,-0.0101233
27,9,0,0,0,0,0,0,231.8,254,0,0,0,0,0,0,0,231.8,766,0,0.00179905,0.00018753,0.00120289,0.0171203,0.00190243,0.000791702,0.00106422,0.00076107,0.0683845,0.00109848,0.00187958,0.0133746,-0.0585822,0.000906029,0.000276604,-0.0102759
28,0,0,0,0,0,0,0,231.8,254,0,0,0,0,0,0,0,231.8,766,0,6.14207e-06,0.000340118,-5.59617e-05,0.0150222,0.00113949,0.000410232,0.000224991,-0.00106998,0.0200523,-0.000923309,0.000506287,0.0141757,0.0345728,0.00025753,0.000352898,-0.00966553
28,1,0,0,0,0,0,0,231.8,254,0,0,0,0,0,0,0,231.8,766,0,0.000807228,-0.0013765,0.0010503,0.0163955,0.000529137,0.000295792,0.000720901,-4.00161e-05,-0.0309884,-0.000198517,0.000620727,0.0160067,-0.058811,0.000600853,0.00107769,-0.0100851
28,2,0,0,0,0,0,0,231.8,254,0,0,0,0,0,0,0,231.8,766,0,0.000235024,0.00018753,0.000668831,0.0168914,0.00323757,0.00056282,0.000415726,-0.000726662,0.0742973,0.00071701,0.000697021,0.0146716,-0.083187,0.000600853,0.00119213,-0.00909332
28,3,0,0,0,0,0,0,231.8,254,0,0,0,0,0,0,0,231.8,766,0,0.00115055,0.00018753,0.000668831,0.0162811,0.00380978,0.000410232,0.000720901,0.00076107,0.0249351,0.000793304,0.000391846,0.0131457,0.0224039,0.000867882,0.000543633,-0.00882629
28,4,0,0,0,0,0,0,231.8,254,0,0,0,0,0,0,0,231.8,766,0,0.000921669,-0.000155793,0.000706978,0.0160522,0.00182613,0.000639114,0.000911636,7.44248e-05,-0.0491463,-8.40761e-05,0.000811462,0.00921657,-0.0403098,0.00117306,0.000276604,-0.0093222
28,5,0,0,0,0,0,0,231.8,254,0,0,0,0,0,0,0,231.8,766,0,0.000845375,0.000759735,0.000783272,0.0161285,0.00251278,0.00117317,0.000873489,0.000150719,-0.00497215,0.00174698,-0.000409241,0.0138324,-0.0956992,0.000448265,0.00184063,-0.00760559
28,6,0,0,0,0,0,0,231.8,254,0,0,0,0,0,0,0,231.8,766,0,0.000692788,0.00018753,5.84793e-05,0.0152511,0.00396236,0.000448379,0.000873489,0.000722923,0.0223411,3.03648e-05,0.00046814,0.0122302,-0.0472144,0.000753441,0.00153545,-0.00951294
28,7,0,0,0,0,0,0,231.8,254,0,0,0,0,0,0,0,231.8,766,0,0.0005402,0.000569,0.000592537,0.0158233,0.00384792,0.000639114,0.00152199,0.0010281,0.140063,0.000755157,0.000925903,0.0131457,0.00664917,0.000715294,0.00145916,-0.00833038
28,8,0,0,0,0,0,0,231.8,254,0,0,0,0,0,0,0,231.8,766,0,0.00115055,0.000492706,9.66262e-05,0.0167007,0.00419125,0.000410232,0.000644607,-0.000154457,0.151011,0.000335541,0.0010022,0.00864437,0.0327417,0.000181236,-0.000600777,-0.00970367
28,9,0,0,0,0,0,0,231.8,254,0,0,0,0,0,0,0,231.8,766,0,0.000311318,0.000645294,0.00131733,0.0166244,0.00247463,0.000105057,0.000301285,0.000455895,0.130221,0.000182953,1.03759e-05,0.0069659,-0.0562933,2.86484e-05,0.000352898,-0.007453
29,0,0,0,0,0,0,0,231.8,254,0,0,0,0,0,0,0,231.8,766,0,0.000845375,0.000912323,0.000668831,0.0159378,0.00144466,0.00121132,0.0013694,0.000837364,0.0365699,0.00102219,0.000620727,0.0112002,0.0406381,0.000867882,0.00264172,-0.00806335
29,1,0,0,0,0,0,0,231.8,254,0,0,0,0,0,0,0,231.8,766,0,-0.00022274,-4.13517e-05,0.000401802,0.0164337,0.00327572,-0.000161972,0.000873489,-0.000154457,-0.103277,0.00071701,0.000391846,0.0134127,0.0401041,0.000143089,0.000925102,-0.0081015
29,2,0,0,0,0,0,0,231.8,254,0,0,0,0,0,0,0,231.8,766,0,0.000883522,0.00018753,-9.41086e-05,0.0153274,0.00216946,6.69097e-05,0.00060646,-0.00110813,-0.0181329,0.000106659,-2.77711e-05,0.0168078,-0.0573233,-0.000314674,0.000467339,-0.00936035
29,3,0,0,0,0,0,0,231.8,254,0,0,0,0,0,0,0,231.8,766,0,0.000616494,0.00095047,0.000478096,0.0156326,0.0016354,-0.000123825,3.42559e-05,0.000532188,0.0330222,0.000640716,0.00046814,0.0159686,0.00333038,0.00025753,0.00020031,-0.00901703
29,4,0,0,0,0,0,0,231.8,254,0,0,0,0,0,0,0,231.8,766,0,0.000502053,0.000836029,0.000821419,0.0164337,0.00483974,0.000524673,-0.000423508,0.000532188,-0.0783669,0.000793304,0.000315552,0.0142138,0.0138208,0.000753441,0.000467339,-0.00916962
29,5,0,0,0,0,0,0,231.8,254,0,0,0,0,0,0,0,231.8,766,0,-3.20049e-05,0.000759735,0.000478096,0.0160904,0.00590786,0.00113502,0.000415726,-0.000307045,-0.015844,0.000640716,-0.000180359,0.0149386,-0.0681952,0.000333824,0.000619926,-0.00920776
29,6,0,0,0,0,0,0,231.8,254,0,0,0,0,0,0,0,231.8,766,0,0.000616494,-7.94986e-05,-0.000475578,0.0146789,0.00297054,0.00056282,-0.000156479,0.000227013,0.0469077,-0.000274811,-0.000828858,0.0174563,0.005047,0.000524559,-0.000143013,-0.0100851
29,7,0,0,0,0,0,0,231.8,254,0,0,0,0,0,0,0,231.8,766,0,6.14207e-06,0.000836029,0.000745125,0.0156707,0.00190243,0.000639114,0.000911636,0.000722923,-0.0706231,0.000411835,0.000697021,0.0172656,0.0314447,0.00113491,0.0010014,-0.00768188
29,8,0,0,0,0,0,0,231.8,254,0,0,0,0,0,0,0,231.8,766,0,-3.20049e-05,0.000416412,0.000859566,0.0168914,-0.000233803,0.00105873,0.00049202,0.000379601,-0.0531518,0.000335541,0.000887756,0.0196688,-0.0853613,0.00147823,0.00119213,-0.00825409
29,9,0,0,0,0,0,0,231.8,254,0,0,0,0,0,0,0,231.8,766,0,0.000273171,-0.000880585,9.66262e-05,0.0166244,-0.00538364,0.000295792,0.000224991,3.62778e-05,-0.0285088,0.000755157,0.000849609,0.0197833,-0.0797537,0.000867882,-0.000333748,-0.00806335
30,0,0,0,0,0,0,0,231.8,254,0,0,0,0,0,0,0,231.8,766,0,0.000387612,0.000301971,0.000783272,0.0162429,-0.00408665,0.000372085,0.000797195,-0.000612221,0.0250114,0.00106033,0.000201111,0.017113,-0.0499991,0.000371971,0.0015736,-0.00951294
30,1,0,0,0,0,0,0,231.8,254,0,0,0,0,0,0,0,231.8,766,0,0.000387612,3.49423e-05,0.000249214,0.01651,0.000758019,0.000219498,0.000415726,0.000951805,-0.00626915,-0.00119034,0.000277405,0.0167697,0.019314,0.0012875,0.00020031,-0.00855927
30,2,0,0,0,0,0,0,231.8,254,0,0,0,0,0,0,0,231.8,766,0,0.00153202,0.000340118,0.000630684,0.01548,-0.00118748,0.000867996,0.00117867,0.000455895,-0.0460946,0.00109848,0.000925903,0.0155871,-0.0534705,0.00166897,0.00119213,-0.00901703
30,3,0,0,0,0,0,0,231.8,254,0,0,0,0,0,0,0,231.8,766,0,0.000997963,0.0012175,0.00093586,0.0159759,-0.00221745,0.000524673,0.00011055,0.000341454,0.0445045,0.000678863,0.000925903,0.0146334,-0.0488547,-0.000467262,0.00203136,-0.00783447
30,4,0,0,0,0,0,0,231.8,254,0,0,0,0,0,0,0,231.8,766,0,0.000769082,0.000530853,0.00017292,0.015213,-0.00206486,0.000410232,0.00060646,-0.000459633,0.00029213,0.00109848,0.000353699,0.0136035,0.0613519,0.000791588,-0.000219307,-0.00836853
30,5,0,0,0,0,0,0,231.8,254,0,0,0,0,0,0,0,231.8,766,0,0.000120583,0.00095047,0.000249214,0.0154419,0.00148281,0.00102058,0.000224991,0.000341454,-0.0371301,-0.000198517,0.000315552,0.0169223,-0.0348547,0.000600853,0.000848808,-0.00890259
30,6,0,0,0,0,0,0,231.8,254,0,0,0,0,0,0,0,231.8,766,0,0.000502053,0.00125565,0.00108845,0.0156707,0.00529751,0.0014402,0.000148697,0.00076107,0.0614799,0.00117477,-0.000332947,0.0152819,-0.034931,0.00117306,0.000886955,-0.00855927
30,7,0,0,0,0,0,0,231.8,254,0,0,0,0,0,0,0,231.8,766,0,0.000807228,0.000492706,0.000134773,0.016777,0.00224575,0.00132576,0.00117867,-1.86916e-06,0.0120414,0.00201401,0.000201111,0.0153964,0.0614664,0.00140194,0.000352898,-0.0081778
30,8,0,0,0,0,0,0,231.8,254,0,0,0,0,0,0,0,231.8,766,0,0.000921669,0.00137009,0.000516243,0.0162429,0.00144466,0.00109688,0.00102608,0.000608482,-0.0354897,0.000373688,0.000162964,0.0137561,-0.0347021,0.00140194,0.000467339,-0.00890259
30,9,0,0,0,0,0,0,231.8,254,0,0,0,0,0,0,0,231.8,766,0,0.00126499,0.000607147,0.000821419,0.0168151,0.00396236,0.000982437,0.000873489,0.000799217,0.0698722,0.00113663,0.000162964,0.015549,-0.0627783,0.00170712,0.000772514,-0.00783447
31,0,0,0,0,0,0,0,231.8,254,0,0,0,0,0,0,0,231.8,766,0,-3.20049e-05,0.000874176,0.00112659,0.0167389,0.00621304,0.000524673,0.000453873,0.000532188,0.021807,0.00113663,-0.000142212,0.0165026,0.0480768,0.000524559,0.000925102,-0.00855927
31,1,0,0,0,0,0,0,231.8,254,0,0,0,0,0,0,0,231.8,766,0,0.000883522,0.000569,9.66262e-05,0.0158233,0.00384792,0.000257645,-0.000194626,-1.86916e-06,-0.0512826,0.0002211,0.000887756,0.0124591,-0.0367621,0.000600853,0.00130657,-0.00855927
31,2,0,0,0,0,0,0,231.8,254,0,0,0,0,0,0,0,231.8,766,0,0.000845375,0.000683441,0.000287361,0.0164718,0.00606045,0.000219498,0.00098793,-0.00011631,-0.00626915,0.000907745,-0.00067627,0.0118487,-0.100124,0.000791588,8.58689e-05,-0.00760559
31,3,0,0,0,0,0,0,231.8,254,0,0,0,0,0,0,0,231.8,766,0,0.000845375,0.00137009,0.000745125,0.0164337,0.00682339,0.00113502,-3.89107e-06,0.00156216,0.0229896,0.000602569,0.000925903,0.00906399,-0.0711325,0.00109676,0.00130657,-0.00962738
31,4,0,0,0,0,0,0,231.8,254,0,0,0,0,0,0,0,231.8,766,0,0.000311318,7.30893e-05,0.000859566,0.0174636,0.00869259,0.00113502,0.00129311,-0.000383339,0.139605,0.00140366,0.000620727,0.0110858,-0.0247076,0.000944176,0.000238457,-0.00791077
31,5,0,0,0,0,0,0,231.8,254,0,0,0,0,0,0,0,231.8,766,0,-3.20049e-05,0.000225677,-0.000246697,0.0155563,0.0060223,0.000524673,0.000339432,-7.81631e-05,0.15082,0.000335541,8.66698e-05,0.0119632,-0.0209311,0.000333824,0.00020031,-0.00852112
31,6,0,0,0,0,0,0,231.8,254,0,0,0,0,0,0,0,231.8,766,0,0.000387612,0.000378265,-0.000513725,0.0165863,0.00522121,0.000867996,0.000682754,-1.86916e-06,0.126978,0.000411835,-0.000561829,0.0120395,-0.12183,0.000715294,0.000734367,-0.00760559
31,7,0,0,0,0,0,0,231.8,254,0,0,0,0,0,0,0,231.8,766,0,0.00115055,0.000874176,0.00108845,0.0162429,0.00449642,0.00109688,0.00197975,0.0010281,0.0386298,0.00109848,-0.000104065,0.0148623,-0.00769409,0.00147823,0.00107769,-0.0075293
31,8,0,0,0,0,0,0,231.8,254,0,0,0,0,0,0,0,231.8,766,0,0.00115055,0.00144638,0.000287361,0.0172348,0.00510677,0.000639114,0.00106422,0.000608482,-0.0953805,0.000526275,0.000849609,0.0192492,0.00214783,0.0012112,0.00103954,-0.00836853
31,9,0,0,0,0,0,0,231.8,254,0,0,0,0,0,0,0,231.8,766,0,-0.000680503,0.000378265,9.66262e-05,0.0160141,0.00556454,0.000639114,7.24029e-05,-0.000650368,-0.0165688,0.000259247,-0.000218506,0.0157397,-0.0916174,0.000181236,4.77219e-05,-0.00897888
32,0,0,0,0,0,0,0,231.8,254,0,0,0,0,0,0,0,231.8,766,0,0.00157017,0.00156082,0.000821419,0.0165863,0.00865444,0.00136391,-0.000118332,0.00144772,0.0367225,0.000984039,0.000658874,0.0122302,0.00619141,0.000639,0.000543633,-0.00802521
32,1,0,0,0,0,0,0,231.8,254,0,0,0,0,0,0,0,231.8,766,0,0.000463906,0.00140823,0.0010503,0.0158233,0.0078915,0.00174538,0.000720901,0.000989952,-0.0753152,0.000984039,-0.00067627,0.0126879,0.0351831,0.00144009,0.0010014,-0.00928406
32,2,0,0,0,0,0,0,231.8,254,0,0,0,0,0,0,0,231.8,766,0,-0.000451622,0.000721588,-0.000170403,0.0155563,0.00442013,-0.000123825,3.42559e-05,-1.86916e-06,-0.0130212,0.000411835,-0.00105774,0.0172656,-0.0497702,0.000104942,4.77219e-05,-0.00890259
32,3,0,0,0,0,0,0,231.8,254,0,0,0,0,0,0,0,231.8,766,0,0.000502053,0.000874176,0.00055439,0.0153656,0.00651821,0.00128761,0.000720901,0.000799217,0.0502265,0.000564422,0.000544433,0.0227588,0.035946,0.00102047,0.00123028,-0.00787262
32,4,0,0,0,0,0,0,231.8,254,0,0,0,0,0,0,0,231.8,766,0,0.000692788,0.00129379,0.00017292,0.0160141,0.00606045,0.000295792,0.000949783,7.44248e-05,-0.0673043,0.000945892,0.000658874,0.0190585,0.059559,0.0012112,-0.000143013,-0.00821594
32,5,0,0,0,0,0,0,231.8,254,0,0,0,0,0,0,0,231.8,766,0,0.00122685,0.000874176,0.000668831,0.0167389,0.00434383,0.000753555,-0.000232773,0.000608482,-0.0499474,0.00121292,0.000429993,0.0178378,-0.0603751,0.000639,0.00069622,-0.00905518
32,6,0,0,0,0,0,0,231.8,254,0,0,0,0,0,0,0,231.8,766,0,0.000311318,0.000530853,-1.78147e-05,0.0151367,0.0047253,0.000867996,0.000415726,0.000494041,-0.0248086,0.000488129,0.00138367,0.0182574,-0.0487402,0.000715294,0.000810661,-0.00764374
32,7,0,0,0,0,0,0,231.8,254,0,0,0,0,0,0,0,231.8,766,0,0.000196877,7.30893e-05,0.000134773,0.0168533,0.00525936,-0.000429001,0.000415726,0.000188866,0.0288261,0.000411835,0.000658874,0.0169604,-0.0272635,0.000715294,0.000429192,-0.00901703
32,8,0,0,0,0,0,0,231.8,254,0,0,0,0,0,0,0,231.8,766,0,0.000463906,0.0011412,0.000630684,0.0161285,0.00464901,0.00155464,7.24029e-05,0.000188866,-0.00325554,0.00193771,0.000391846,0.0178759,0.0494882,-0.000162086,0.000925102,-0.00737671
32,9,0,0,0,0,0,0,231.8,254,0,0,0,0,0,0,0,231.8,766,0,0.000997963,0.000874176,0.0010503,0.0170822,0.00529751,0.00094429,0.00167458,0.000799217,-0.0420892,0.00128921,0.0010022,0.0163501,-0.0390891,0.00159267,9.57493e-06,-0.00913147
33,0,0,0,0,0,0,0,231.8,254,0,0,0,0,0,0,0,231.8,766,0,0.000273171,0.000492706,0.000401802,0.0158233,0.00342831,0.000791702,-0.000461655,0.000455895,0.0450767,0.00117477,0.000735168,0.0133746,-0.0629309,0.00025753,0.000658073,-0.00970367
33,1,0,0,0,0,0,0,231.8,254,0,0,0,0,0,0,0,231.8,766,0,-7.01519e-05,-0.000346527,-0.000132256,0.0153656,0.00361904,0.000410232,0.000911636,-0.000459633,0.00322945,-0.00016037,-0.000447388,0.00959804,0.0257227,6.67954e-05,0.000352898,-0.00829224
33,2,0,0,0,0,0,0,231.8,254,0,0,0,0,0,0,0,231.8,766,0,0.00122685,0.0012175,0.000668831,0.0158615,0.000643578,0.000829849,0.00060646,0.000532188,-0.0344979,0.00125107,0.000239258,0.0063937,-0.0714758,0.00117306,0.000619926,-0.00844482
33,3,0,0,0,0,0,0,231.8,254,0,0,0,0,0,0,0,231.8,766,0,0.000196877,0.000416412,0.00158436,0.0164718,0.0028561,0.00155464,-3.89107e-06,0.000989952,0.062281,0.00159439,0.00115479,0.00666073,-0.0854758,0.00105862,0.000963249,-0.00855927
33,4,0,0,0,0,0,0,231.8,254,0,0,0,0,0,0,0,231.8,766,0,0.000311318,7.30893e-05,5.84793e-05,0.0168533,0.00533566,0.000753555,0.000682754,0.000532188,0.0125373,0.000297394,0.00126923,0.0076144,0.019581,0.0012875,0.000772514,-0.00913147
33,5,0,0,0,0,0,0,231.8,254,0,0,0,0,0,0,0,231.8,766,0,0.000273171,0.000569,-1.78147e-05,0.016777,0.00697597,0.000639114,0.000530167,-0.000802956,-0.0346124,0.000373688,0.00046814,0.0106662,-0.0522116,0.000906029,-0.000448189,-0.00981812
33,6,0,0,0,0,0,0,231.8,254,0,0,0,0,0,0,0,231.8,766,0,0.000769082,0.000912323,0.000668831,0.0156707,0.000529137,0.000524673,0.000148697,-1.86916e-06,0.0698722,0.00102219,0.000773315,0.0122683,-0.062435,-4.76455e-05,0.00058178,-0.00871185
33,7,0,0,0,0,0,0,231.8,254,0,0,0,0,0,0,0,231.8,766,0,-3.20049e-05,0.000988617,0.000630684,0.017044,0.00136837,0.000829849,0.00236122,0.0016766,0.0231422,0.00132736,0.000124817,0.014519,0.0575372,0.00182156,0.00226025,-0.00733856
33,8,0,0,0,0,0,0,231.8,254,0,0,0,0,0,0,0,231.8,766,0,8.2436e-05,0.00125565,0.00135548,0.0160141,0.00274166,0.00132576,-0.000118332,0.000646629,-0.0493371,0.00163254,8.66698e-05,0.0108187,-0.00746521,0.00102047,0.000391045,-0.0081015
33,9,0,0,0,0,0,0,231.8,254,0,0,0,0,0,0,0,231.8,766,0,0.000692788,0.000111236,-0.000590019,0.0160904,0.00541195,0.000791702,0.000949783,0.000188866,-0.00581139,-0.00138107,0.000124817,0.0110858,-0.0534705,0.00113491,0.00119213,-0.00871185
34,0,0,0,0,0,0,0,231.8,254,0,0,0,0,0,0,0,231.8,766,0,0.00015873,0.000301971,0.000592537,0.0157089,0.00457272,0.00102058,0.000759048,0.000570335,0.0152839,0.00117477,-0.000142212,0.0145953,-0.0232199,0.000944176,0.00069622,-0.00844482
34,1,0,0,0,0,0,0,231.8,254,0,0,0,0,0,0,0,231.8,766,0,0.000463906,0.00137009,0.000821419,0.0161666,0.00373348,0.000105057,0.000186844,0.000722923,0.0577796,0.000182953,0.00138367,0.0182193,0.0206873,0.000753441,0.000505486,-0.00825409
34,2,0,0,0,0,0,0,231.8,254,0,0,0,0,0,0,0,231.8,766,0,-0.000184593,-0.000499115,-5.59617e-05,0.0158233,0.0041531,0.000295792,0.000148697,0.000494041,-0.0328576,0.000411835,0.00046814,0.0189822,0.0479623,0.000867882,0.000772514,-0.00966553
34,3,0,0,0,0,0,0,231.8,254,0,0,0,0,0,0,0,231.8,766,0,0.00015873,-0.000117646,-0.000857048,0.0158233,0.00342831,0.000791702,0.000682754,0.00076107,0.0174964,0.000106659,-0.00132477,0.0208133,-0.0519064,0.000143089,0.000314751,-0.00794891
34,4,0,0,0,0,0,0,231.8,254,0,0,0,0,0,0,0,231.8,766,0,0.0005402,0.000263824,0.000287361,0.0163955,0.00468716,0.000219498,0.0013694,0.000494041,0.0567878,0.000297394,0.000773315,0.0213855,0.0276682,0.00155453,0.00142101,-0.00878815
34,5,0,0,0,0,0,0,231.8,254,0,0,0,0,0,0,0,231.8,766,0,0.00134129,0.000530853,0.000668831,0.0166626,0.00678524,0.00159279,0.000911636,0.000608482,-0.0281655,0.00125107,0.00107849,0.0192111,0.0225565,0.000371971,-0.000219307,-0.00749115
34,6,0,0,0,0,0,0,231.8,254,0,0,0,0,0,0,0,231.8,766,0,0.000578347,0.000912323,0.00120289,0.0174255,0.00556454,0.00174538,0.0013694,0.000913658,0.0219215,0.000373688,0.00046814,0.0201648,-0.0736502,0.00109676,0.000810661,-0.00855927
34,7,0,0,0,0,0,0,231.8,254,0,0,0,0,0,0,0,231.8,766,0,0.000654641,0.000301971,0.000821419,0.0169296,0.00770077,0.00140205,0.000568314,0.000646629,0.0711692,0.00186142,0.000506287,0.0149768,-0.00159058,0.00109676,0.00214581,-0.00905518
34,8,0,0,0,0,0,0,231.8,254,0,0,0,0,0,0,0,231.8,766,0,0.000883522,0.00110306,0.00017292,0.0166244,0.00426754,0.0014402,0.00117867,0.000455895,-0.0314843,0.00147995,-0.000409241,0.0125354,-0.00887665,0.0012112,0.000505486,-0.00894073
34,9,0,0,0,0,0,0,231.8,254,0,0,0,0,0,0,0,231.8,766,0,0.000387612,0.000607147,9.66262e-05,0.0155182,0.00232204,0.000791702,0.000873489,0.000417748,0.0221503,0.0014418,0.000277405,0.00978878,-0.122059,0.00178341,0.000619926,-0.0102759
35,0,0,0,0,0,0,0,231.8,254,0,0,0,0,0,0,0,231.8,766,0,0.000730935,0.000607147,0.00124104,0.0167389,0.0040768,0.00151649,0.00159828,0.000684776,0.0784934,0.00140366,0.000773315,0.0127261,-0.0391653,0.00124935,0.00130657,-0.00875
35,1,0,0,0,0,0,0,231.8,254,0,0,0,0,0,0,0,231.8,766,0,0.000120583,-7.94986e-05,0.000401802,0.0158615,0.00503048,0.000867996,0.00121681,0.000837364,-0.0375497,0.000678863,0.00058258,0.014786,0.0241586,0.00159267,0.0028706,-0.00833038
35,2,0,0,0,0,0,0,231.8,254,0,0,0,0,0,0,0,231.8,766,0,0.000845375,0.000492706,-0.000590019,0.015747,0.00644192,0.000410232,0.000148697,0.000227013,-0.0247704,0.000373688,0.00046814,0.0144809,-0.0814703,0.000562706,0.00069622,-0.00890259
35,3,0,0,0,0,0,0,231.8,254,0,0,0,0,0,0,0,231.8,766,0,0.000196877,-0.000117646,0.00124104,0.0158233,0.00648006,0.000257645,0.00129311,-1.86916e-06,-0.0012719,0.000755157,0.000658874,0.0101702,-0.0700262,0.000333824,0.000314751,-0.0081015
35,4,0,0,0,0,0,0,231.8,254,0,0,0,0,0,0,0,231.8,766,0,0.00126499,0.000340118,0.000516243,0.0171203,0.00895962,0.000753555,0.000911636,0.000684776,0.0811637,0.000640716,0.000239258,0.00803402,-0.0192145,0.00136379,0.00134472,-0.00844482
35,5,0,0,0,0,0,0,231.8,254,0,0,0,0,0,0,0,231.8,766,0,0.000921669,0.00018753,0.00124104,0.0163574,0.0102185,0.000600967,0.00102608,0.00121883,0.163447,0.0014418,0.00145996,0.0109713,0.0586816,0.00102047,0.000925102,-0.00669006
35,6,0,0,0,0,0,0,231.8,254,0,0,0,0,0,0,0,231.8,766,0,-0.000108299,0.000530853,0.000630684,0.0152511,0.00972256,0.00056282,0.000873489,0.000341454,0.137965,0.000602569,0.000887756,0.0127261,-0.0177267,0.00025753,0.00191692,-0.00875
35,7,0,0,0,0,0,0,231.8,254,0,0,0,0,0,0,0,231.8,766,0,-0.00022274,0.000530853,-0.000437431,0.0151748,0.0101422,-0.000276413,0.00186531,0.00129513,0.10451,-0.000465546,0.000239258,0.0126879,-0.0303915,-0.000314674,0.000886955,-0.00909332
35,8,0,0,0,0,0,0,231.8,254,0,0,0,0,0,0,0,231.8,766,0,0.00145573,0.000988617,0.00093586,0.0160904,0.0109051,0.000715408,0.000148697,0.000417748,-0.0528085,0.000526275,0.000544433,0.0156634,0.0506708,0.0012112,0.000734367,-0.00760559
35,9,0,0,0,0,0,0,231.8,254,0,0,0,0,0,0,0,231.8,766,0,0.000997963,0.0011412,0.000592537,0.0167389,0.0114392,0.000410232,0.00209419,0.00133327,-0.0806176,0.00109848,0.0022229,0.0173419,-0.0404242,0.00147823,0.00107769,-0.00916962
36,0,0,0,0,0,0,0,231.8,254,0,0,0,0,0,0,0,231.8,766,0,0.000959816,0.000149383,-1.78147e-05,0.0158233,0.00907406,0.000715408,0.000377579,-0.000154457,0.0335181,-0.000732575,1.03759e-05,0.0180667,-0.0560645,0.000104942,-0.000295601,-0.00867371
36,1,0,0,0,0,0,0,231.8,254,0,0,0,0,0,0,0,231.8,766,0,0.00015873,-0.000155793,0.000630684,0.015747,0.00842556,-0.00031456,3.42559e-05,0.000341454,-0.0234734,-0.000923309,0.000315552,0.0186007,0.0396463,0.000448265,0.000467339,-0.00836853
36,2,0,0,0,0,0,0,231.8,254,0,0,0,0,0,0,0,231.8,766,0,0.000769082,7.30893e-05,-0.00032299,0.0155563,0.00613674,-9.38424e-06,0.000835342,0.00156216,-0.0740182,0.000449982,0.000429993,0.0139849,-0.0533179,-0.000314674,0.00107769,-0.00993256
36,3,0,0,0,0,0,0,231.8,254,0,0,0,0,0,0,0,231.8,766,0,0.000578347,3.49423e-05,0.000325508,0.0160904,0.00434383,0.000486526,0.000377579,-0.000421486,0.0406898,0.000564422,0.000162964,0.0136798,-0.059574,0.000181236,9.57493e-06,-0.00871185
36,4,0,0,0,0,0,0,231.8,254,0,0,0,0,0,0,0,231.8,766,0,0.00122685,0.000836029,0.000859566,0.0158615,0.00358089,0.000486526,0.000720901,0.000913658,-0.00768059,0.000602569,0.00134552,0.0137561,0.038273,0.000295677,0.00187878,-0.0093222
36,5,0,0,0,0,0,0,231.8,254,0,0,0,0,0,0,0,231.8,766,0,0.000349465,0.000149383,0.000821419,0.01651,0.00140652,0.00094429,0.000644607,0.000684776,-0.0817239,-4.59291e-05,0.00119293,0.0146716,-0.051525,0.000448265,0.000734367,-0.00886444
36,6,0,0,0,0,0,0,231.8,254,0,0,0,0,0,0,0,231.8,766,0,0.00015873,0.000530853,0.000668831,0.0162811,0.00571712,0.00094429,0.00098793,-4.00161e-05,-0.0330102,0.00102219,0.000162964,0.0166552,-0.106724,0.00117306,0.000619926,-0.00977997
36,7,0,0,0,0,0,0,231.8,254,0,0,0,0,0,0,0,231.8,766,0,8.2436e-05,0.00018753,-1.78147e-05,0.0167007,0.00758633,0.000524673,0.00049202,0.000989952,-0.0105416,0.000755157,0.000544433,0.0136416,-0.0556067,0.000677147,0.00191692,-0.00897888
36,8,0,0,0,0,0,0,231.8,254,0,0,0,0,0,0,0,231.8,766,0,0.000692788,-0.000155793,0.00055439,0.0156707,0.00388607,0.000219498,0.00114052,-0.000307045,0.0358451,0.00106033,-0.000104065,0.011925,-0.00105652,2.86484e-05,0.00130657,-0.00836853
36,9,0,0,0,0,0,0,231.8,254,0,0,0,0,0,0,0,231.8,766,0,0.00145573,0.000683441,0.000439949,0.0167007,0.00236019,0.000753555,0.00114052,0.000417748,-0.053457,6.85118e-05,0.00111664,0.0050967,0.0296136,0.00163082,0.000467339,-0.00852112
37,0,0,0,0,0,0,0,231.8,254,0,0,0,0,0,0,0,231.8,766,0,0.000349465,0.00018753,-0.000132256,0.0155182,0.00239834,0.000791702,0.000759048,-1.86916e-06,0.0006736,6.85118e-05,-0.000523682,0.00345638,-0.0684622,0.00025753,0.00119213,-0.00867371
37,1,0,0,0,0,0,0,231.8,254,0,0,0,0,0,0,0,231.8,766,0,0.00141758,0.000530853,0.00093586,0.0168151,0.00361904,0.000639114,0.000568314,0.000532188,0.0437034,0.000755157,0.000429993,0.00898769,0.0174829,0.00105862,0.000314751,-0.00707153
37,2,0,0,0,0,0,0,231.8,254,0,0,0,0,0,0,0,231.8,766,0,0.0005402,0.000530853,0.000706978,0.0162048,0.007243,0.000677261,-4.2038e-05,0.00137142,-0.0416695,0.00159439,0.00145996,0.00887325,0.0343057,0.000677147,0.00069622,-0.00909332
37,3,0,0,0,0,0,0,231.8,254,0,0,0,0,0,0,0,231.8,766,0,0.000120583,-0.000499115,0.000478096,0.0156326,0.00522121,0.000257645,7.24029e-05,0.000112572,0.0102103,0.000106659,-0.000561829,0.010628,-0.0585059,-0.000200233,-0.000333748,-0.00791077
37,4,0,0,0,0,0,0,231.8,254,0,0,0,0,0,0,0,231.8,766,0,0.00103611,0.000797882,0.000974007,0.0163574,0.00751003,0.000333939,0.000568314,0.00110439,0.0646461,0.000984039,0.000773315,0.0118487,0.0277444,0.00124935,0.000734367,-0.00863556
37,5,0,0,0,0,0,0,231.8,254,0,0,0,0,0,0,0,231.8,766,0,0.000883522,0.000492706,0.00154621,0.0163574,0.00777706,0.000410232,0.000911636,0.00129513,-0.039457,0.000602569,0.000697021,0.016846,0.0426981,0.000639,0.00103954,-0.0093222
37,6,0,0,0,0,0,0,231.8,254,0,0,0,0,0,0,0,231.8,766,0,0.000654641,0.000797882,-1.78147e-05,0.0158996,0.00571712,2.87627e-05,0.000530167,0.000227013,0.0160087,0.000411835,-2.77711e-05,0.0207751,-0.0518683,0.000715294,0.000314751,-0.00821594
37,7,0,0,0,0,0,0,231.8,254,0,0,0,0,0,0,0,231.8,766,0,0.00126499,0.000797882,0.000592537,0.0167389,0.00495419,0.00117317,0.000415726,0.00140957,0.0752891,0.0002211,0.0010022,0.0219195,0.0238153,0.000639,0.000963249,-0.00760559
37,8,0,0,0,0,0,0,231.8,254,0,0,0,0,0,0,0,231.8,766,0,0.0005402,0.000492706,0.000287361,0.0171203,0.00586971,0.000448379,0.00060646,-0.000688515,-0.0396478,0.000144806,0.000315552,0.0198214,0.0311014,0.000715294,-0.000371895,-0.00848297
37,9,0,0,0,0,0,0,231.8,254,0,0,0,0,0,0,0,231.8,766,0,0.000997963,0.000263824,2.03323e-05,0.0162429,0.00503048,-8.56782e-05,0.00129311,0.00076107,-0.0263726,0.00071701,0.000391846,0.0166171,-0.0969962,0.00113491,0.00172619,-0.00821594
38,0,0,0,0,0,0,0,231.8,254,0,0,0,0,0,0,0,231.8,766,0,-0.000451622,0.00102676,0.000325508,0.0159759,0.00243649,6.69097e-05,0.00098793,7.44248e-05,-0.00516289,0.00132736,0.00161255,0.016846,-0.0767783,0.000562706,0.000505486,-0.00951294
38,1,0,0,0,0,0,0,231.8,254,0,0,0,0,0,0,0,231.8,766,0,0.00122685,0.000874176,0.00101215,0.016777,0.00506863,0.00121132,0.0013694,0.000799217,0.0472511,0.000411835,0.00046814,0.0239413,-0.0670889,0.00113491,0.00107769,-0.00882629
38,2,0,0,0,0,0,0,231.8,254,0,0,0,0,0,0,0,231.8,766,0,0.000921669,0.000759735,0.00017292,0.0156326,0.00518307,0.000982437,0.000682754,0.000837364,0.015322,-7.78213e-06,0.000925903,0.0188296,0.00687805,0.000944176,0.00115398,-0.00894073
38,3,0,0,0,0,0,0,231.8,254,0,0,0,0,0,0,0,231.8,766,0,0.000425759,-0.000384674,0.000134773,0.0158996,0.00274166,2.87627e-05,7.24029e-05,0.000379601,-0.0302636,0.0002211,0.000277405,0.0169223,-0.0715521,0.000371971,0.00111584,-0.00871185
38,4,0,0,0,0,0,0,231.8,254,0,0,0,0,0,0,0,231.8,766,0,0.000769082,0.00137009,0.000249214,0.0165481,0.00548824,0.00113502,0.000720901,0.000646629,0.057093,0.000755157,0.000773315,0.0226443,-0.0783804,0.000867882,0.0010014,-0.00863556
38,5,0,0,0,0,0,0,231.8,254,0,0,0,0,0,0,0,231.8,766,0,0.00191349,0.000836029,0.000516243,0.0160141,0.0053738,0.00105873,0.000568314,0.000989952,0.0142158,0.000449982,0.00046814,0.0216143,0.0292703,0.00102047,0.00134472,-0.00749115
38,6,0,0,0,0,0,0,231.8,254,0,0,0,0,0,0,0,231.8,766,0,0.000845375,0.000111236,0.000706978,0.0169677,-0.000119362,0.000982437,0.00098793,0.000989952,-0.0267922,0.00147995,0.000697021,0.0167315,-0.0501898,0.000753441,0.000429192,-0.00840668
38,7,0,0,0,0,0,0,231.8,254,0,0,0,0,0,0,0,231.8,766,0,0.000654641,-0.000270233,0.000668831,0.0163955,0.000262108,-0.000657883,0.00011055,0.000494041,0.0700629,-0.000236664,-0.000447388,0.0159686,-0.041416,0.000524559,0.000429192,-0.0100089
38,8,0,0,0,0,0,0,231.8,254,0,0,0,0,0,0,0,231.8,766,0,0.000387612,7.30893e-05,0.000401802,0.0161285,0.00236019,0.00094429,-0.000385361,0.000417748,0.0200904,0.00178513,-0.000218506,0.0146716,0.0500223,-9.49856e-06,0.000772514,-0.00813965
38,9,0,0,0,0,0,0,231.8,254,0,0,0,0,0,0,0,231.8,766,0,0.0011887,0.000874176,9.66262e-05,0.0162429,0.00323757,0.00105873,0.000263138,0.000875511,-0.0304162,0.000945892,0.000391846,0.0138324,-0.0163916,0.000295677,0.000124016,-0.00970367
39,0,0,0,0,0,0,0,231.8,254,0,0,0,0,0,0,0,231.8,766,0,0.00160831,0.00106491,0.00150806,0.0171203,-0.00149265,0.000829849,0.000568314,0.000875511,0.074221,0.00174698,0.00123108,0.0155871,-0.0198248,0.000677147,0.00130657,-0.00855927
39,1,0,0,0,0,0,0,231.8,254,0,0,0,0,0,0,0,231.8,766,0,8.2436e-05,0.000378265,0.000821419,0.0158615,-0.00141636,0.000677261,0.000301285,-0.000955543,0.0252021,0.00125107,-0.000714417,0.012955,0.0797388,0.000448265,0.000467339,-0.00924591
39,2,0,0,0,0,0,0,231.8,254,0,0,0,0,0,0,0,231.8,766,0,0.000921669,0.00129379,0.00150806,0.0163574,0.00178799,0.00056282,0.000301285,0.00213436,-0.0499093,0.00132736,0.000925903,0.00753811,0.00786987,0.000677147,8.58689e-05,-0.00909332
39,3,0,0,0,0,0,0,231.8,254,0,0,0,0,0,0,0,231.8,766,0,0.00122685,0.0012175,0.000745125,0.0157852,-0.000462685,0.00121132,0.000453873,0.000532188,-0.00626915,0.00125107,0.000162964,0.00708034,-0.0656012,0.00113491,0.00119213,-0.00791077
39,4,0,0,0,0,0,0,231.8,254,0,0,0,0,0,0,0,231.8,766,0,0.0011124,0.00125565,0.000592537,0.0163574,0.00499233,0.00105873,0.000377579,0.00076107,0.0216926,-0.000503693,1.03759e-05,0.0140231,-0.037525,0.00102047,0.00176434,-0.00848297
39,5,0,0,0,0,0,0,231.8,254,0,0,0,0,0,0,0,231.8,766,0,0.0005402,0.000530853,-0.000666313,0.0157089,0.0053738,0.00094429,0.000682754,0.000875511,0.141932,0.000526275,8.66698e-05,0.0134127,4.97438e-05,0.00117306,-0.000753365,-0.00848297
39,6,0,0,0,0,0,0,231.8,254,0,0,0,0,0,0,0,231.8,766,0,0.000883522,0.000607147,2.03323e-05,0.0167389,0.00339016,0.000333939,0.000453873,-0.000345192,0.152804,0.000945892,0.000429993,0.0135272,0.0181696,0.00205044,0.000467339,-0.00882629
39,7,0,0,0,0,0,0,231.8,254,0,0,0,0,0,0,0,231.8,766,0,0.00126499,-0.000460968,0.000211067,0.0173874,0.00533566,0.000867996,0.00117867,0.000989952,0.126368,-0.00054184,0.000697021,0.011658,-0.09177,0.000791588,0.0010014,-0.00829224
39,8,0,0,0,0,0,0,231.8,254,0,0,0,0,0,0,0,231.8,766,0,-7.01519e-05,0.000340118,0.000516243,0.0149459,0.00766262,0.000372085,0.00049202,-0.000154457,0.0363029,0.000945892,0.000429993,0.0107806,-0.0114706,0.000944176,0.000124016,-0.00875
39,9,0,0,0,0,0,0,231.8,254,0,0,0,0,0,0,0,231.8,766,0,8.2436e-05,0.00133194,0.00101215,0.0169296,0.00712856,0.000524673,0.000759048,0.00110439,-0.0992715,0.000831451,0.000162964,0.012955,-0.00456604,0.000562706,0.000963249,-0.00875
40,0,0,0,0,0,0,0,231.8,254,0,0,0,0,0,0,0,231.8,766,0,0.000273171,0.000721588,0.000859566,0.0170822,0.00674709,0.000715408,0.000682754,0.000150719,-0.0196206,0.000984039,0.00119293,0.0172656,-0.110157,0.000944176,0.000352898,-0.00913147
40,1,0,0,0,0,0,0,231.8,254,0,0,0,0,0,0,0,231.8,766,0,0.000387612,0.000492706,0.000211067,0.0150604,0.00499233,0.00102058,-0.000194626,0.000722923,0.0344337,0.000182953,-0.000218506,0.0187152,-0.0258521,-0.000772438,0.000352898,-0.00916962
40,2,0,0,0,0,0,0,231.8,254,0,0,0,0,0,0,0,231.8,766,0,-0.00022274,0.000759735,0.000974007,0.0151748,0.00308498,0.000600967,0.000263138,-0.000230751,-0.0792062,0.000678863,0.000239258,0.0162356,0.00291077,0.000104942,0.000505486,-0.00909332
40,3,0,0,0,0,0,0,231.8,254,0,0,0,0,0,0,0,231.8,766,0,0.00149387,0.00125565,2.03323e-05,0.0165863,0.00411495,0.000143204,0.000530167,0.000684776,-0.0157677,-0.00016037,0.0010022,0.0170367,-0.0773886,0.00132565,0.000886955,-0.00905518
40,4,0,0,0,0,0,0,231.8,254,0,0,0,0,0,0,0,231.8,766,0,-0.000833091,-0.00030838,0.000134773,0.0161285,0.00449642,0.000906143,0.00011055,-0.000268898,0.0467933,0.000793304,-0.000981445,0.0156634,0.00741211,0.000562706,-0.00018116,-0.00905518
40,5,0,0,0,0,0,0,231.8,254,0,0,0,0,0,0,0,231.8,766,0,8.2436e-05,0.0011412,0.0016988,0.0169296,0.00720486,0.00132576,0.00106422,0.000227013,-0.0723016,0.00102219,0.0010022,0.0167697,0.0479623,0.00140194,0.000162163,-0.00859741
40,6,0,0,0,0,0,0,231.8,254,0,0,0,0,0,0,0,231.8,766,0,0.000692788,0.000454559,0.000478096,0.016777,0.00148281,0.000829849,-0.000423508,0.000684776,-0.0539529,0.00193771,0.000315552,0.0147479,-0.0616721,0.000371971,0.000505486,-0.00836853
40,7,0,0,0,0,0,0,231.8,254,0,0,0,0,0,0,0,231.8,766,0,0.000463906,0.000645294,0.00055439,0.0160141,-0.000424538,0.000982437,0.000224991,0.000875511,-0.0285851,0.00071701,0.000201111,0.0128024,-0.0438193,0.000677147,0.0015736,-0.00909332
40,8,0,0,0,0,0,0,231.8,254,0,0,0,0,0,0,0,231.8,766,0,0.000502053,0.000111236,-0.000170403,0.0171203,0.000223961,0.00056282,0.000263138,0.000875511,0.0268806,0.000144806,0.000429993,0.0107425,-0.00345978,0.000906029,0.000619926,-0.00890259
40,9,0,0,0,0,0,0,231.8,254,0,0,0,0,0,0,0,231.8,766,0,8.2436e-05,0.00213303,0.00158436,0.0158233,-0.00160709,0.00159279,7.24029e-05,0.000379601,-0.0056588,0.00132736,8.66698e-05,0.0140994,0.0675699,0.000448265,0.00103954,-0.00798706
41,0,0,0,0,0,0,0,231.8,254,0,0,0,0,0,0,0,231.8,766,0,8.2436e-05,0.00156082,0.000439949,0.0161666,-0.00431553,0.000410232,3.42559e-05,0.00076107,-0.0471627,0.000755157,0.00104034,0.0154345,-0.0549582,0.00124935,0.00142101,-0.00962738
41,1,0,0,0,0,0,0,231.8,254,0,0,0,0,0,0,0,231.8,766,0,0.00137943,0.00133194,0.000516243,0.0171585,-0.00202671,0.00136391,0.0013694,0.000684776,0.0444282,0.00102219,-0.000638123,0.0171893,-0.072048,0.00105862,-0.000638924,-0.00836853
41,2,0,0,0,0,0,0,231.8,254,0,0,0,0,0,0,0,231.8,766,0,-0.000260887,-0.000155793,0.000745125,0.0161285,-0.00450626,-9.38424e-06,-0.000499802,-0.000268898,0.000139542,0.000297394,0.000391846,0.01841,0.0249216,-0.000200233,-0.000143013,-0.00897888
41,3,0,0,0,0,0,0,231.8,254,0,0,0,0,0,0,0,231.8,766,0,0.000807228,0.00167526,0.000668831,0.015747,-0.00740543,0.000105057,0.000568314,3.62778e-05,-0.037626,0.00167068,0.000620727,0.0201648,-0.075405,0.000677147,0.00107769,-0.00722412
41,4,0,0,0,0,0,0,231.8,254,0,0,0,0,0,0,0,231.8,766,0,0.0005402,0.00148453,0.00112659,0.0173492,-0.00641361,0.00174538,0.00060646,0.000417748,0.0627387,0.00163254,0.000849609,0.0227588,-0.0846747,0.000295677,0.000886955,-0.00779633
41,5,0,0,0,0,0,0,231.8,254,0,0,0,0,0,0,0,231.8,766,0,0.00122685,0.000759735,0.000706978,0.0165863,-0.00412479,0.000219498,0.000377579,0.00118069,0.0125755,0.000488129,0.00046814,0.0150149,0.00382629,0.000677147,0.0010014,-0.0081015
41,6,0,0,0,0,0,0,231.8,254,0,0,0,0,0,0,0,231.8,766,0,0.000120583,0.00110306,0.00112659,0.0171585,-0.00244633,0.000829849,0.000797195,-0.000268898,-0.0371682,0.000411835,0.00130737,0.00635555,-0.0745657,0.000753441,0.000467339,-0.00794891
41,7,0,0,0,0,0,0,231.8,254,0,0,0,0,0,0,0,231.8,766,0,0.000425759,0.000874176,0.000478096,0.0165863,-0.000348244,0.000219498,0.000453873,0.000150719,0.0709785,0.000945892,0.000239258,0.00147274,-0.0812796,2.86484e-05,0.000619926,-0.00775818
41,8,0,0,0,0,0,0,231.8,254,0,0,0,0,0,0,0,231.8,766,0,0.000845375,-0.00068985,-0.000132256,0.0162048,0.00178799,0.000143204,0.000377579,-0.000345192,0.0206245,0.000411835,0.000925903,0.00441006,0.0314066,0.000982323,0.000467339,-0.00875
41,9,0,0,0,0,0,0,231.8,254,0,0,0,0,0,0,0,231.8,766,0,6.14207e-06,0.00163712,0.00143177,0.0158615,0.00388607,0.00182167,0.000873489,0.000303307,-0.0519692,0.00125107,-2.77711e-05,0.00872066,-0.0232962,0.0012875,-0.00018116,-0.00836853
42,0,0,0,0,0,0,0,231.8,254,0,0,0,0,0,0,0,231.8,766,0,0.000807228,0.000263824,-5.59617e-05,0.0158233,0.00308498,0.000257645,-0.000957565,0.000150719,-0.00771873,0.0002211,0.000315552,0.00822475,-0.0669745,0.000104942,0.000276604,-0.010314
42,1,0,0,0,0,0,0,231.8,254,0,0,0,0,0,0,0,231.8,766,0,4.4289e-05,0.00106491,0.00158436,0.0167007,0.000300255,0.00102058,0.000453873,-0.000535927,0.0116218,0.000564422,0.00046814,0.00555447,-0.0223807,0.000906029,0.00119213,-0.0081015
42,2,0,0,0,0,0,0,231.8,254,0,0,0,0,0,0,0,231.8,766,0,0.000387612,0.000454559,0.0010503,0.0167007,0.00392422,0.000791702,0.000224991,0.000455895,0.0577033,0.000602569,0.000925903,0.00254086,0.0284311,0.000600853,0.00069622,-0.00863556
42,3,0,0,0,0,0,0,231.8,254,0,0,0,0,0,0,0,231.8,766,0,0.000845375,0.00110306,0.000287361,0.0159378,0.00510677,-8.56782e-05,0.000568314,0.000646629,-0.0333916,3.03648e-05,0.000429993,0.00757626,0.0542947,0.00136379,-0.000143013,-0.00905518
42,4,0,0,0,0,0,0,231.8,254,0,0,0,0,0,0,0,231.8,766,0,0.000425759,0.000149383,0.000974007,0.0169296,0.00121578,0.000753555,0.00152199,0.00129513,0.0169624,0.00163254,0.000544433,0.0139087,-0.0370291,0.000753441,0.000848808,-0.00852112
42,5,0,0,0,0,0,0,231.8,254,0,0,0,0,0,0,0,231.8,766,0,0.000311318,0.000683441,-5.59617e-05,0.0152511,0.0022839,-4.75312e-05,0.000568314,-1.86916e-06,0.0584281,-0.000503693,-0.000218506,0.0143283,0.0465128,0.000486412,0.000352898,-0.00901703
42,6,0,0,0,0,0,0,231.8,254,0,0,0,0,0,0,0,231.8,766,0,0.0005402,0.000836029,0.00124104,0.0160522,0.00529751,0.00151649,0.000797195,-0.000230751,-0.0323235,0.00197586,0.000391846,0.0166171,0.0493738,0.00147823,0.000658073,-0.00951294
42,7,0,0,0,0,0,0,231.8,254,0,0,0,0,0,0,0,231.8,766,0,0.000616494,0.00095047,0.000783272,0.0156326,0.00857815,0.00102058,0.000873489,0.00076107,0.0226844,0.000144806,-6.59181e-05,0.0177996,-0.0603369,0.000639,0.00149731,-0.00920776
42,8,0,0,0,0,0,0,231.8,254,0,0,0,0,0,0,0,231.8,766,0,-0.000604209,0.000683441,0.000974007,0.0158996,0.00949368,0.000486526,0.000453873,0.000684776,0.0727332,-0.000274811,-0.000409241,0.023331,0.00275818,0.000944176,-0.00018116,-0.00920776
42,9,0,0,0,0,0,0,231.8,254,0,0,0,0,0,0,0,231.8,766,0,-0.000260887,3.49423e-05,0.000630684,0.0152511,0.00831112,0.000867996,0.000453873,0.000112572,-0.0345361,0.00102219,0.000544433,0.0245135,0.0261041,0.00124935,0.000429192,-0.0093222
43,0,0,0,0,0,0,0,231.8,254,0,0,0,0,0,0,0,231.8,766,0,0.000235024,0.0012175,0.000325508,0.0170059,0.0140332,0.000829849,0.000568314,0.000799217,0.0212348,0.00140366,0.000811462,0.0231021,-0.0813178,0.00109676,0.000391045,-0.00844482
43,1,0,0,0,0,0,0,231.8,254,0,0,0,0,0,0,0,231.8,766,0,0.000845375,0.000225677,0.000516243,0.0163955,0.00892147,0.000372085,0.00156013,0.00026516,0.0797523,0.00106033,0.00130737,0.0214618,-0.00937256,0.000181236,-0.000219307,-0.0102759
43,2,0,0,0,0,0,0,231.8,254,0,0,0,0,0,0,0,231.8,766,0,0.000349465,0.000340118,0.00017292,0.0159378,0.00117764,-9.38424e-06,0.000720901,-7.81631e-05,-0.0385415,0.000411835,-0.000447388,0.0234835,0.0191232,-0.000467262,0.000391045,-0.00768188
43,3,0,0,0,0,0,0,231.8,254,0,0,0,0,0,0,0,231.8,766,0,0.000921669,0.00117935,0.00108845,0.0164337,0.00312313,0.000791702,0.000224991,0.000303307,-0.0254952,0.00147995,0.00046814,0.0217669,-0.0981024,0.000371971,0.00176434,-0.00951294
43,4,0,0,0,0,0,0,231.8,254,0,0,0,0,0,0,0,231.8,766,0,0.000502053,3.49423e-05,0.00093586,0.0171585,0.00258907,0.000257645,0.00125496,0.00026516,-0.00264519,0.00231918,0.000735168,0.0221484,-0.0730017,0.000143089,0.000505486,-0.00760559
43,5,0,0,0,0,0,0,231.8,254,0,0,0,0,0,0,0,231.8,766,0,0.000196877,0.00171341,0.000287361,0.01548,0.00358089,0.000600967,-0.00027092,-0.000383339,0.0813926,-0.00054184,0.000277405,0.014252,-0.0464133,-0.000123939,0.00164989,-0.00886444
43,6,0,0,0,0,0,0,231.8,254,0,0,0,0,0,0,0,231.8,766,0,-0.000413475,0.000149383,0.000859566,0.0168151,0.00411495,0.00140205,0.00148384,0.000150719,0.165621,-7.78213e-06,0.000391846,0.0082629,0.0360986,0.00163082,8.58689e-05,-0.00966553
43,7,0,0,0,0,0,0,231.8,254,0,0,0,0,0,0,0,231.8,766,0,0.000273171,0.000454559,0.00150806,0.0168533,0.00388607,0.00193611,0.00140755,0.000837364,0.139567,0.00136551,0.000925903,0.0155108,-0.0279883,0.00182156,0.00210766,-0.0081778
43,8,0,0,0,0,0,0,231.8,254,0,0,0,0,0,0,0,231.8,766,0,0.000463906,0.000874176,0.000401802,0.016777,0.00743374,0.000219498,0.00117867,-1.86916e-06,0.0995887,0.000526275,0.00111664,0.0164264,-0.0339011,0.000982323,-0.000600777,-0.00962738
43,9,0,0,0,0,0,0,231.8,254,0,0,0,0,0,0,0,231.8,766,0,0.000921669,-0.000575409,0.000630684,0.0160904,0.00758633,0.000791702,0.000453873,-1.86916e-06,-0.0497948,-0.000274811,0.000239258,0.0203936,0.0689813,0.000219383,-0.000448189,-0.00924591
44,0,0,0,0,0,0,0,231.8,254,0,0,0,0,0,0,0,231.8,766,0,0.000349465,0.000988617,0.000821419,0.01651,0.00922665,0.000295792,0.00152199,0.000608482,-0.084089,6.85118e-05,0.00153625,0.0239413,-0.0308875,0.00132565,0.00214581,-0.00909332
44,1,0,0,0,0,0,0,231.8,254,0,0,0,0,0,0,0,231.8,766,0,0.000997963,-0.000270233,0.00055439,0.0166244,0.0103711,-8.56782e-05,0.00152199,0.000227013,0.0338996,0.000106659,0.00107849,0.0184481,-0.0441626,0.00102047,0.0010014,-0.00943665
44,2,0,0,0,0,0,0,231.8,254,0,0,0,0,0,0,0,231.8,766,0,-0.000299034,0.000530853,0.000287361,0.0157852,0.00781521,0.000867996,0.000949783,0.000646629,-0.0251138,0.000526275,0.00142181,0.0106662,0.0397989,0.00105862,0.000963249,-0.0100851
44,3,0,0,0,0,0,0,231.8,254,0,0,0,0,0,0,0,231.8,766,0,0.000578347,3.49423e-05,-1.78147e-05,0.0168151,0.00693783,0.000829849,0.00121681,-0.000154457,-0.0759637,0.000488129,0.00111664,0.010628,-0.0327948,0.000867882,0.000619926,-0.00928406
44,4,0,0,0,0,0,0,231.8,254,0,0,0,0,0,0,0,231.8,766,0,0.000997963,-4.13517e-05,0.000478096,0.0168151,0.00689968,0.000639114,0.00148384,0.000455895,0.0413764,0.00071701,0.000697021,0.0070422,-0.0564459,0.000639,9.57493e-06,-0.00859741
44,5,0,0,0,0,0,0,231.8,254,0,0,0,0,0,0,0,231.8,766,0,-0.00144344,0.00110306,0.000401802,0.0154037,0.00960812,0.00094429,0.000759048,0.000303307,-0.00935905,-0.000923309,-0.000371094,0.00521114,0.0349542,0.00124935,0.00199322,-0.00962738
44,6,0,0,0,0,0,0,231.8,254,0,0,0,0,0,0,0,231.8,766,0,0.000959816,0.00018753,0.00127918,0.017044,0.00937923,0.000639114,0.000873489,0.000303307,-0.0838219,0.00113663,0.000620727,0.00578335,-0.0324896,0.00132565,0.000429192,-0.00985626
44,7,0,0,0,0,0,0,231.8,254,0,0,0,0,0,0,0,231.8,766,0,0.000654641,0.000263824,-5.59617e-05,0.0155182,0.00751003,0.000715408,0.00011055,0.000150719,-0.0335442,0.000488129,-0.000561829,0.0125735,-0.110996,0.000333824,0.000467339,-0.00802521
44,8,0,0,0,0,0,0,231.8,254,0,0,0,0,0,0,0,231.8,766,0,0.000730935,0.000530853,0.000363655,0.0160522,0.0009869,0.000906143,0.000835342,0.000379601,-0.0110375,-0.000274811,0.00104034,0.0169986,-0.0902823,0.000753441,0.000963249,-0.00901703
44,9,0,0,0,0,0,0,231.8,254,0,0,0,0,0,0,0,231.8,766,0,0.000311318,0.000149383,0.000783272,0.0162429,0.00190243,-0.000276413,0.00049202,0.000455895,0.0369895,0.000449982,0.000773315,0.0185626,-0.0462988,0.000333824,0.000276604,-0.00970367
45,0,0,0,0,0,0,0,231.8,254,0,0,0,0,0,0,0,231.8,766,0,0.000959816,0.000759735,0.000706978,0.0162811,-0.00183598,0.000257645,0.000911636,-0.000192604,-0.0530755,0.00128921,0.00142181,0.0200885,-0.0231055,0.000753441,0.00191692,-0.00909332
45,1,0,0,0,0,0,0,231.8,254,0,0,0,0,0,0,0,231.8,766,0,0.00015873,-0.00068985,0.000706978,0.0172348,0.00213131,0.000524673,0.00102608,0.000341454,0.00101692,-0.00016037,0.00096405,0.0256198,-0.104053,0.000829735,0.000772514,-0.00913147
45,2,0,0,0,0,0,0,231.8,254,0,0,0,0,0,0,0,231.8,766,0,0.000235024,-0.00133835,-0.000361137,0.0151367,0.00277981,0.000600967,0.000873489,-0.000459633,0.043856,-0.000122223,-6.59181e-05,0.0200503,-0.0129584,6.67954e-05,0.000162163,-0.0081778
45,3,0,0,0,0,0,0,231.8,254,0,0,0,0,0,0,0,231.8,766,0,0.000692788,-7.94986e-05,0.000897713,0.0170059,0.00274166,0.00056282,0.000301285,7.44248e-05,-0.0430047,0.000297394,0.000887756,0.0152438,0.00657288,0.00102047,0.00107769,-0.00993256
45,4,0,0,0,0,0,0,231.8,254,0,0,0,0,0,0,0,231.8,766,0,0.00130314,0.00095047,0.000783272,0.0166244,0.00255093,0.000982437,-0.000385361,0.000875511,0.0118888,0.00071701,0.00115479,0.0118869,-0.0709418,0.00174526,0.000124016,-0.00859741
45,5,0,0,0,0,0,0,231.8,254,0,0,0,0,0,0,0,231.8,766,0,-0.000566063,0.00018753,-5.59617e-05,0.0162811,0.000796166,0.000524673,0.000148697,-0.000688515,0.0649894,0.000526275,0.000315552,0.0101702,0.0251123,0.000867882,0.00020031,-0.00920776
45,6,0,0,0,0,0,0,231.8,254,0,0,0,0,0,0,0,231.8,766,0,0.00115055,0.000378265,0.00093586,0.0163574,-0.000538978,0.000486526,0.000186844,0.00076107,-0.04022,-0.000236664,0.000239258,0.0144809,0.0600931,0.000181236,0.00123028,-0.00863556
45,7,0,0,0,0,0,0,231.8,254,0,0,0,0,0,0,0,231.8,766,0,-0.000108299,0.000874176,0.000745125,0.0162429,-0.00145451,0.00117317,0.000911636,-0.00106998,0.0159324,0.000449982,0.000391846,0.017113,-0.0487784,0.000677147,0.000238457,-0.0093222
45,8,0,0,0,0,0,0,231.8,254,0,0,0,0,0,0,0,231.8,766,0,0.00115055,0.000759735,0.000897713,0.0160522,0.00159725,0.00163094,0.00148384,0.000570335,0.0763572,0.000488129,1.03759e-05,0.0195544,0.0267526,0.00174526,0.00210766,-0.0100851
45,9,0,0,0,0,0,0,231.8,254,0,0,0,0,0,0,0,231.8,766,0,6.14207e-06,-0.000117646,-5.59617e-05,0.0154037,0.00194057,0.000791702,0.000797195,0.000379601,-0.0408685,-0.000236664,0.000391846,0.0162356,0.060589,0.00105862,0.00172619,-0.00962738
46,0,0,0,0,0,0,0,231.8,254,0,0,0,0,0,0,0,231.8,766,0,0.00107426,-0.00019394,0.000211067,0.015747,0.00308498,0.00155464,0.00106422,0.000303307,-0.026983,0.000640716,-0.000981445,0.0124972,-0.0545004,0.0012875,0.00149731,-0.00760559
46,1,0,0,0,0,0,0,231.8,254,0,0,0,0,0,0,0,231.8,766,0,0.000235024,-0.000460968,-0.000132256,0.016777,0.00594601,0.00056282,0.000873489,0.000494041,-0.00298851,-0.000694428,0.00058258,0.016083,-0.0365713,0.00124935,0.000886955,-0.00844482
46,2,0,0,0,0,0,0,231.8,254,0,0,0,0,0,0,0,231.8,766,0,0.000730935,7.30893e-05,0.000821419,0.0160904,0.00354275,0.000867996,0.000682754,0.000646629,0.0816596,0.000144806,-0.000714417,0.0111621,-0.0180319,0.000715294,0.000467339,-0.00871185
46,3,0,0,0,0,0,0,231.8,254,0,0,0,0,0,0,0,231.8,766,0,-0.000375328,0.0011412,0.000211067,0.0164337,0.00670895,0.000867996,0.000530167,0.000722923,0.166384,0.00109848,0.00115479,0.00894955,0.0363657,0.000867882,0.00138287,-0.00829224
46,4,0,0,0,0,0,0,231.8,254,0,0,0,0,0,0,0,231.8,766,0,0.00130314,-3.20468e-06,0.000592537,0.0162811,0.00686153,0.00147835,0.00182716,0.000913658,0.139529,0.000373688,0.000506287,0.0128787,-0.0724677,0.00208858,0.000658073,-0.00779633
46,5,0,0,0,0,0,0,231.8,254,0,0,0,0,0,0,0,231.8,766,0,-7.01519e-05,-0.000117646,0.000439949,0.0150222,0.00312313,0.000753555,0.000720901,-4.00161e-05,0.100657,0.000259247,-0.000142212,0.0124972,-0.093334,0.000524559,0.000848808,-0.00844482
46,6,0,0,0,0,0,0,231.8,254,0,0,0,0,0,0,0,231.8,766,0,0.000769082,0.000988617,0.000401802,0.0162811,0.00632748,6.69097e-05,0.00152199,0.000989952,-0.0466668,3.03648e-05,0.00130737,0.0146334,0.00695435,0.00102047,0.00111584,-0.00989441
46,7,0,0,0,0,0,0,231.8,254,0,0,0,0,0,0,0,231.8,766,0,0.000692788,0.000797882,0.00112659,0.0166244,0.00674709,0.00094429,0.00117867,0.000951805,-0.0813042,0.00128921,0.00096405,0.0110858,-0.06686,0.00170712,0.00123028,-0.00836853
46,8,0,0,0,0,0,0,231.8,254,0,0,0,0,0,0,0,231.8,766,0,0.0011124,0.000607147,0.000821419,0.0165863,0.00903591,-4.75312e-05,0.000530167,0.000875511,0.0364173,-0.000503693,0.00123108,0.0172656,-0.0707129,0.000410118,0.00123028,-0.0081778
46,9,0,0,0,0,0,0,231.8,254,0,0,0,0,0,0,0,231.8,766,0,6.14207e-06,-0.00030838,0.000325508,0.0161285,0.0112103,0.000600967,0.00117867,3.62778e-05,-0.0225198,0.000831451,0.000315552,0.0184481,0.0297281,0.000371971,0.00107769,-0.00798706
47,0,0,0,0,0,0,0,231.8,254,0,0,0,0,0,0,0,231.8,766,0,0.0011124,0.000797882,0.000592537,0.0162811,0.0101803,0.00102058,0.000682754,0.00076107,-0.0717294,0.00071701,0.000391846,0.0161975,-0.0529745,0.000677147,0.000772514,-0.00958923
47,1,0,0,0,0,0,0,231.8,254,0,0,0,0,0,0,0,231.8,766,0,0.000692788,0.000225677,0.00135548,0.0173874,0.00689968,0.000600967,0.000873489,7.44248e-05,0.0440086,0.000907745,0.00126923,0.0137561,-0.0486258,0.000371971,0.00142101,-0.00936035
47,2,0,0,0,0,0,0,231.8,254,0,0,0,0,0,0,0,231.8,766,0,0.000502053,-0.000537262,-9.41086e-05,0.015747,0.00613674,6.69097e-05,0.000263138,-0.000535927,-0.00680321,0.000182953,0.000620727,0.00841549,0.0564691,0.00025753,-0.000677071,-0.00936035
47,3,0,0,0,0,0,0,231.8,254,0,0,0,0,0,0,0,231.8,766,0,0.000311318,0.000645294,0.000668831,0.0164337,0.00712856,0.000906143,0.000835342,0.000646629,-0.0805413,0.000488129,0.000811462,0.00742367,-0.00849518,0.000677147,0.00107769,-0.0093985
47,4,0,0,0,0,0,0,231.8,254,0,0,0,0,0,0,0,231.8,766,0,0.000463906,0.000225677,9.66262e-05,0.0172729,0.00781521,0.000715408,0.000873489,0.000570335,-0.0302636,-0.000312958,-0.000638123,0.0106662,-0.0659445,0.000562706,0.000772514,-0.00859741
47,5,0,0,0,0,0,0,231.8,254,0,0,0,0,0,0,0,231.8,766,0,0.000921669,0.000492706,0.00112659,0.0166626,0.00937923,0.000410232,0.000339432,0.000837364,-0.00783318,0.00128921,0.000773315,0.0165026,-0.0240973,0.00124935,0.00107769,-0.00794891
47,6,0,0,0,0,0,0,231.8,254,0,0,0,0,0,0,0,231.8,766,0,0.000502053,0.00110306,5.84793e-05,0.0162429,0.0107525,0.00102058,0.00106422,0.000722923,0.0394691,3.03648e-05,0.000925903,0.0190585,0.0170633,0.00117306,0.00145916,-0.00798706
47,7,0,0,0,0,0,0,231.8,254,0,0,0,0,0,0,0,231.8,766,0,0.000387612,-4.13517e-05,0.000745125,0.0163192,0.00808224,0.000867996,0.00140755,0.000341454,-0.0515878,0.000831451,0.000506287,0.0158541,0.0139734,2.86484e-05,0.00020031,-0.00901703
47,8,0,0,0,0,0,0,231.8,254,0,0,0,0,0,0,0,231.8,766,0,0.0011124,0.00159897,0.000592537,0.0164718,0.00808224,0.00117317,0.00152199,0.000112572,0.00429756,0.000144806,0.00123108,0.0177233,-0.0822333,0.0012112,0.00115398,-0.00791077
47,9,0,0,0,0,0,0,231.8,254,0,0,0,0,0,0,0,231.8,766,0,0.000883522,-0.000155793,0.000630684,0.0161285,0.00514492,0.000486526,0.000911636,0.00026516,0.0459159,0.000640716,0.000849609,0.0158923,0.0101587,0.000944176,0.00138287,-0.00791077
48,0,0,0,0,0,0,0,231.8,254,0,0,0,0,0,0,0,231.8,766,0,0.000692788,-0.000117646,-0.000513725,0.0160904,0.00522121,0.000677261,0.00098793,0.000570335,-0.0400674,0.00071701,0.000353699,0.0141375,0.00161377,0.00105862,0.0010014,-0.00798706
48,1,0,0,0,0,0,0,231.8,254,0,0,0,0,0,0,0,231.8,766,0,0.0011887,0.00106491,0.000516243,0.0160904,0.00346645,0.000677261,0.00133125,0.000989952,0.0141013,0.000945892,0.000620727,0.0126879,-0.108211,0.00136379,0.00184063,-0.00676636
48,2,0,0,0,0,0,0,231.8,254,0,0,0,0,0,0,0,231.8,766,0,0.000654641,0.000492706,-0.000170403,0.0158615,0.00335201,0.000257645,0.000720901,0.000341454,0.0652183,0.000449982,0.000162964,0.0131839,-0.0150183,0.000486412,-2.8572e-05,-0.00867371
48,3,0,0,0,0,0,0,231.8,254,0,0,0,0,0,0,0,231.8,766,0,0.000120583,0.00095047,0.000974007,0.0157852,0.00483974,0.000105057,0.000797195,0.000608482,-0.0385415,-8.40761e-05,-0.000752564,0.0124209,-0.00231537,-0.000276527,0.000772514,-0.00859741
48,4,0,0,0,0,0,0,231.8,254,0,0,0,0,0,0,0,231.8,766,0,0.000387612,0.000912323,0.000478096,0.0171203,0.00113949,0.000867996,0.00121681,0.000570335,0.0186027,0.00117477,0.000620727,0.0145953,-0.0969199,0.00155453,0.000162163,-0.00821594
48,5,0,0,0,0,0,0,231.8,254,0,0,0,0,0,0,0,231.8,766,0,0.000425759,-0.00110947,-0.000361137,0.0154419,0.00049099,0.000181351,0.000949783,0.000646629,0.0755943,0.00125107,0.000124817,0.0134127,-0.00994476,-0.000314674,0.000124016,-0.00821594
48,6,0,0,0,0,0,0,231.8,254,0,0,0,0,0,0,0,231.8,766,0,0.00122685,0.00167526,0.000478096,0.0163574,0.00411495,0.00155464,0.00106422,0.00148586,-0.0383889,0.000335541,0.000353699,0.0134127,0.0445291,0.0012875,0.00119213,-0.00920776
48,7,0,0,0,0,0,0,231.8,254,0,0,0,0,0,0,0,231.8,766,0,0.0011124,0.000378265,0.000439949,0.0163574,0.00197872,0.000295792,0.00140755,0.00152401,-0.0252282,0.000564422,0.000735168,0.0125735,-0.0534323,0.00159267,0.000238457,-0.00848297
48,8,0,0,0,0,0,0,231.8,254,0,0,0,0,0,0,0,231.8,766,0,0.000502053,0.000416412,-0.000170403,0.0165481,0.00457272,0.000181351,0.000644607,0.000951805,-0.00363701,0.00109848,-0.000332947,0.0123828,-0.0250128,0.000371971,0.00123028,-0.00722412
48,9,0,0,0,0,0,0,231.8,254,0,0,0,0,0,0,0,231.8,766,0,0.00172276,-0.000155793,0.000287361,0.0160141,0.000262108,0.000333939,0.00102608,7.44248e-05,0.0483955,0.0002211,0.000887756,0.00784328,-0.000980224,0.000486412,0.000543633,-0.00882629
49,0,0,0,0,0,0,0,231.8,254,0,0,0,0,0,0,0,231.8,766,0,0.000235024,-0.000270233,0.000668831,0.0163955,-0.000538978,0.000753555,0.00133125,0.000227013,0.0152839,0.000488129,0.000162964,0.00597408,0.0715372,0.000143089,0.00115398,-0.00863556
49,1,0,0,0,0,0,0,231.8,254,0,0,0,0,0,0,0,231.8,766,0,0.000883522,0.00117935,0.000783272,0.016777,-0.000615272,0.000639114,0.00133125,0.000913658,-0.0298058,0.00132736,-0.000218506,0.011658,-0.0166968,0.00163082,0.00107769,-0.00955109
49,2,0,0,0,0,0,0,231.8,254,0,0,0,0,0,0,0,231.8,766,0,0.000502053,0.000683441,-0.000132256,0.0168914,-0.00160709,0.000333939,-0.000118332,0.000799217,0.0590003,0.000488129,0.000773315,0.010361,-0.0368384,-0.000162086,-6.6719e-05,-0.00878815
49,3,0,0,0,0,0,0,231.8,254,0,0,0,0,0,0,0,231.8,766,0,-0.000337181,0.000797882,-0.000246697,0.0149078,0.0009869,0.00147835,-0.00103386,7.44248e-05,0.0116599,0.000182953,0.000162964,0.0113147,0.0547906,0.000410118,0.000543633,-0.00783447
49,4,0,0,0,0,0,0,231.8,254,0,0,0,0,0,0,0,231.8,766,0,0.0011124,0.000912323,0.00055439,0.0163574,0.000414696,0.000639114,0.00110237,0.000913658,-0.0257623,0.00163254,0.00168884,0.0170749,-0.0490073,0.001936,0.00252728,-0.00966553
49,5,0,0,0,0,0,0,231.8,254,0,0,0,0,0,0,0,231.8,766,0,0.00107426,0.000836029,0.000325508,0.017044,-0.00172153,0.00132576,0.00121681,0.000646629,0.0713599,-0.000312958,0.000697021,0.0175326,-0.0496558,0.000944176,0.00119213,-0.00829224
49,6,0,0,0,0,0,0,231.8,254,0,0,0,0,0,0,0,231.8,766,0,-0.000146446,0.000263824,0.000211067,0.0168533,-0.00114933,0.00094429,0.000797195,0.000913658,0.0192512,0.00136551,0.000658874,0.0163882,0.035946,0.00105862,0.00130657,-0.00894073
49,7,0,0,0,0,0,0,231.8,254,0,0,0,0,0,0,0,231.8,766,0,0.000311318,0.00095047,-0.000971489,0.0159378,-0.000729713,0.000715408,0.000644607,0.000989952,-0.031408,0.000526275,0.000315552,0.0103228,-0.0618628,0.000906029,0.00111584,-0.00852112
49,8,0,0,0,0,0,0,231.8,254,0,0,0,0,0,0,0,231.8,766,0,0.000311318,0.000378265,9.66262e-05,0.0159759,-0.00359074,0.000486526,-0.000118332,-0.00011631,0.0736488,0.000488129,0.00046814,0.0123065,-0.0857809,-0.000314674,0.00130657,-0.00772003
49,9,0,0,0,0,0,0,231.8,254,0,0,0,0,0,0,0,231.8,766,0,0.000769082,0.000607147,0.000439949,0.017044,-0.00195042,0.00159279,0.00114052,0.00121883,0.025431,0.000182953,0.000887756,0.0143664,0.0195428,0.00144009,0.00191692,-0.00859741
50,0,0,0,0,0,0,0,231.8,254,0,0,0,0,0,0,0,231.8,766,0,0.0005402,0.00144638,0.000439949,0.0161666,0.000719872,0.00113502,0.000720901,0.00076107,-0.0518929,0.0014418,-0.000409241,0.0180285,-0.0429419,0.00124935,0.00058178,-0.00840668
50,1,0,0,0,0,0,0,231.8,254,0,0,0,0,0,0,0,231.8,766,0,0.0005402,0.000607147,-1.78147e-05,0.0164718,0.00297054,0.00147835,0.00049202,0.000646629,-0.00657433,0.000144806,-0.000638123,0.0169604,-0.0908163,0.000600853,0.000963249,-0.00829224
50,2,0,0,0,0,0,0,231.8,254,0,0,0,0,0,0,0,231.8,766,0,0.0011124,0.00159897,0.000401802,0.0160904,0.00621304,0.000181351,0.000377579,0.000722923,0.0224555,-4.59291e-05,0.000849609,0.0192492,-0.0447729,-0.000162086,0.0015736,-0.00875
50,3,0,0,0,0,0,0,231.8,254,0,0,0,0,0,0,0,231.8,766,0,0.000692788,0.000378265,0.000325508,0.0157852,0.00159725,0.00117317,0.00148384,0.00026516,0.142695,0.00167068,-0.000218506,0.0144427,0.00142303,0.00109676,-2.8572e-05,-0.00920776
50,4,0,0,0,0,0,0,231.8,254,0,0,0,0,0,0,0,231.8,766,0,0.000578347,0.0011412,0.00135548,0.0168914,0.00331387,0.000295792,0.00049202,0.00144772,0.15349,0.000793304,0.00104034,0.0119632,0.0217554,0.00140194,0.0015736,-0.00890259
50,5,0,0,0,0,0,0,231.8,254,0,0,0,0,0,0,0,231.8,766,0,0.00103611,0.000797882,0.000974007,0.0161666,0.00426754,0.00147835,0.00121681,0.000722923,0.126559,0.00071701,8.66698e-05,0.0120013,-0.0659827,0.00124935,0.000467339,-0.00768188
50,6,0,0,0,0,0,0,231.8,254,0,0,0,0,0,0,0,231.8,766,0,-0.000604209,0.000149383,5.84793e-05,0.0153656,0.00339016,-4.75312e-05,0.000568314,7.44248e-05,0.0356544,0.000373688,0.000201111,0.0190203,0.0274393,-0.000543556,0.000619926,-0.00958923
50,7,0,0,0,0,0,0,231.8,254,0,0,0,0,0,0,0,231.8,766,0,0.000425759,0.000301971,0.00017292,0.0162811,0.00449642,0.0014402,0.00011055,0.000989952,-0.101103,0.000678863,-0.000142212,0.021271,0.0292703,-0.000505409,0.000505486,-0.00768188
50,8,0,0,0,0,0,0,231.8,254,0,0,0,0,0,0,0,231.8,766,0,0.000692788,0.00106491,0.00196583,0.0163955,0.00533566,0.00113502,0.00117867,0.000722923,-0.0208031,0.00125107,0.000697021,0.0199359,-0.0635031,0.00147823,0.00153545,-0.00722412
50,9,0,0,0,0,0,0,231.8,254,0,0,0,0,0,0,0,231.8,766,0,0.000921669,0.00106491,0.000516243,0.0165481,0.00625118,0.000715408,-4.2038e-05,0.000227013,0.0347007,0.000526275,0.000391846,0.0153201,0.0130579,0.000753441,0.00069622,-0.00916962
51,0,0,0,0,0,0,0,231.8,254,0,0,0,0,0,0,0,231.8,766,0,-0.000260887,0.00018753,0.000592537,0.0154037,0.00869259,0.000791702,0.00049202,-0.000230751,-0.0804269,0.000564422,0.00126923,0.0160067,0.0285074,6.67954e-05,-0.000333748,-0.00756744
51,1,0,0,0,0,0,0,231.8,254,0,0,0,0,0,0,0,231.8,766,0,0.000959816,0.001866,0.000859566,0.0159759,0.0103711,0.00094429,0.00060646,0.00076107,-0.0157677,0.00125107,0.000544433,0.0158923,-0.0722006,0.00136379,0.000848808,-0.00852112
51,2,0,0,0,0,0,0,231.8,254,0,0,0,0,0,0,0,231.8,766,0,6.14207e-06,0.00129379,0.000363655,0.0147552,0.00842556,0.00056282,0.000911636,-0.000459633,0.0472892,0.00109848,0.00107849,0.015549,0.00394074,0.000944176,-0.000371895,-0.00905518
51,3,0,0,0,0,0,0,231.8,254,0,0,0,0,0,0,0,231.8,766,0,0.000120583,-0.000117646,0.000287361,0.0159378,0.00583157,0.00094429,0.000530167,0.000494041,-0.0716531,0.000526275,-6.59181e-05,0.0165789,0.0280496,0.00105862,0.00149731,-0.00928406
51,4,0,0,0,0,0,0,231.8,254,0,0,0,0,0,0,0,231.8,766,0,-7.01519e-05,0.00175156,0.000783272,0.0160141,0.00621304,0.00136391,0.00125496,0.00076107,-0.0549065,0.000640716,0.00145996,0.0177996,-0.0961951,-0.00023838,0.00111584,-0.00806335
51,5,0,0,0,0,0,0,231.8,254,0,0,0,0,0,0,0,231.8,766,0,0.000692788,0.00018753,-0.000284843,0.0158233,0.00567898,0.000639114,0.00110237,0.000417748,-0.0296532,0.000793304,-6.59181e-05,0.0169223,-0.0893286,0.000791588,0.00214581,-0.0081778
51,6,0,0,0,0,0,0,231.8,254,0,0,0,0,0,0,0,231.8,766,0,0.00115055,0.00129379,0.000325508,0.0156707,0.00625118,0.00109688,0.00159828,0.00106625,0.0278342,0.000488129,0.000391846,0.0149768,-0.0622824,0.00109676,0.00195507,-0.00905518
51,7,0,0,0,0,0,0,231.8,254,0,0,0,0,0,0,0,231.8,766,0,0.000883522,0.000378265,0.000592537,0.0161666,0.00636562,0.000677261,0.00098793,0.00106625,-0.00733726,0.000488129,0.000162964,0.0165026,0.0132486,0.000181236,0.000848808,-0.00920776
