Devices
1000
,,North - Force,,,North - Moment,,,North - CoP,,,South - Force,,,South - Moment,,,South - CoP,,,EMG - Voltage,,,,,,,,,,,,,,,,
Frame,Sub Frame,Fx,Fy,Fz,Mx,My,Mz,Cx,Cy,Cz,Fx,Fy,Fz,Mx,My,Mz,Cx,Cy,Cz,1,2,3,TA,5,Sol,7,8,VL,RF,BF,GlutMed,GlutMax,14,MedGast,16
,,N,N,N,N.mm,N.mm,N.mm,mm,mm,mm,N,N,N,N.mm,N.mm,N.mm,mm,mm,mm,V,V,V,V,V,V,V,V,V,V,V,V,V,V,V,V
1,0,0,0,0,0,0,0,231.8,254,0,0,0,0,0,0,0,231.8,766,0,0.000730935,-7.94986e-05,0.00055439,0.0153274,0.011134,0.00113502,0.00110237,0.00148586,0.0393165,-0.000351105,0.000811462,0.0117343,-0.0219611,0.00109676,0.00252728,-0.00897888
1,1,0,0,0,0,0,0,231.8,254,0,0,0,0,0,0,0,231.8,766,0,0.000921669,0.00148453,0.000439949,0.0159378,0.0097607,0.000448379,0.000644607,0.000494041,0.09421,0.000640716,0.00138367,0.0117724,-0.0220374,0.000333824,0.000734367,-0.00993256
1,2,0,0,0,0,0,0,231.8,254,0,0,0,0,0,0,0,231.8,766,0,0.000196877,0.000492706,0.000974007,0.0155944,0.00987514,0.000486526,0.0013694,0.000379601,-0.0684106,-0.000999603,0.00104034,0.0131076,-0.0211981,0.00102047,0.00115398,-0.00825409
1,3,0,0,0,0,0,0,231.8,254,0,0,0,0,0,0,0,231.8,766,0,0.000730935,0.00106491,0.000897713,0.0161285,0.0135373,0.00109688,0.000873489,0.00106625,0.0380576,0.000831451,0.00046814,0.0161975,-0.0209692,0.000906029,0.00206951,-0.00813965
1,4,0,0,0,0,0,0,231.8,254,0,0,0,0,0,0,0,231.8,766,0,0.000578347,0.0011412,0.00127918,0.0161285,0.0182293,0.00121132,0.00102608,-0.000154457,0.101458,0.000640716,0.00104034,0.0152056,-0.0203207,0.00117306,0.00145916,-0.00844482
1,5,0,0,0,0,0,0,231.8,254,0,0,0,0,0,0,0,231.8,766,0,0.000425759,0.000454559,-5.59617e-05,0.0157089,0.0181912,0.00109688,0.00236122,0.000608482,-0.0766122,-0.000122223,0.000620727,0.0149386,-0.0223425,0.000753441,0.00134472,-0.00958923
1,6,0,0,0,0,0,0,231.8,254,0,0,0,0,0,0,0,231.8,766,0,0.000387612,0.000797882,0.000516243,0.0159378,0.017619,0.000715408,0.000377579,-1.86916e-06,-0.0410973,0.000335541,0.000391846,0.0192874,-0.0211218,0.00102047,0.00161175,-0.00878815
1,7,0,0,0,0,0,0,231.8,254,0,0,0,0,0,0,0,231.8,766,0,0.000578347,-0.00133835,9.66262e-05,0.0165863,0.0126599,0.000486526,0.00125496,-0.000459633,-0.0100076,-0.000465546,0.000277405,0.0185626,-0.0214651,0.000295677,0.00111584,-0.00836853
1,8,0,0,0,0,0,0,231.8,254,0,0,0,0,0,0,0,231.8,766,0,-7.01519e-05,-0.000499115,0.000401802,0.0149078,0.00709042,0.000753555,0.00114052,0.000608482,0.0826896,-4.59291e-05,0.000658874,0.022034,-0.0204352,0.00025753,0.000772514,-0.00798706
1,9,0,0,0,0,0,0,231.8,254,0,0,0,0,0,0,0,231.8,766,0,0.000502053,0.000378265,0.000630684,0.0154037,0.00560268,-0.000390854,0.000720901,-0.000459633,-0.00295036,-0.00016037,0.000315552,0.01944,-0.0202063,0.000410118,0.00153545,-0.00798706
2,0,0,0,0,0,0,0,231.8,254,0,0,0,0,0,0,0,231.8,766,0,0.000654641,0.0012175,0.00135548,0.0162811,0.00766262,0.00124947,0.0019416,0.00076107,-0.0468575,0.00109848,0.000620727,0.0154345,-0.0210074,0.00136379,0.00195507,-0.00909332
2,1,0,0,0,0,0,0,231.8,254,0,0,0,0,0,0,0,231.8,766,0,0.00141758,0.00129379,0.000630684,0.0163955,0.00560268,0.000982437,0.000873489,0.000989952,0.0977958,0.0015181,0.00096405,0.0187915,-0.0218085,0.000486412,0.00199322,-0.0075293
2,2,0,0,0,0,0,0,231.8,254,0,0,0,0,0,0,0,231.8,766,0,0.0018372,-3.20468e-06,0.000859566,0.0166626,0.00388607,0.0014402,0.00129311,0.000570335,-0.00336998,0.00121292,0.000620727,0.0183337,-0.0208929,0.00140194,0.000772514,-0.00672821
2,3,0,0,0,0,0,0,231.8,254,0,0,0,0,0,0,0,231.8,766,0,0.000196877,-0.00019394,5.84793e-05,0.0162048,0.00445827,0.000486526,0.00125496,0.000227013,-0.0472771,0.000373688,-0.0002948,0.0126879,-0.0221136,-0.000276527,0.000124016,-0.00859741
2,4,0,0,0,0,0,0,231.8,254,0,0,0,0,0,0,0,231.8,766,0,-0.000260887,0.000492706,0.000706978,0.0155944,-0.00195042,0.000181351,0.000568314,0.000150719,0.107447,0.000678863,0.000620727,0.0124591,-0.0206259,0.000829735,0.000810661,-0.0100851
2,5,0,0,0,0,0,0,231.8,254,0,0,0,0,0,0,0,231.8,766,0,-0.000642356,0.000797882,0.00093586,0.0160141,-0.0040485,0.000906143,0.000453873,-0.00011631,0.00303871,0.000335541,-0.0002948,0.0138324,-0.0219611,0.000410118,0.000543633,-0.00840668
2,6,0,0,0,0,0,0,231.8,254,0,0,0,0,0,0,0,231.8,766,0,0.000959816,0.00018753,-0.00032299,0.0162429,-0.000348244,0.00163094,0.00125496,0.000646629,-0.0490701,0.000182953,0.000925903,0.0175326,-0.021427,0.000677147,0.00134472,-0.00768188
2,7,0,0,0,0,0,0,231.8,254,0,0,0,0,0,0,0,231.8,766,0,0.000502053,0.00140823,0.000134773,0.0163192,-0.00389591,0.000829849,0.00152199,0.00076107,0.10985,0.00163254,0.000658874,0.0147479,-0.0208167,0.00140194,0.000658073,-0.00840668
2,8,0,0,0,0,0,0,231.8,254,0,0,0,0,0,0,0,231.8,766,0,8.2436e-05,0.00110306,0.000706978,0.0160522,-0.00309483,0.000143204,0.000873489,0.000608482,0.0106681,6.85118e-05,-0.000180359,0.0151294,-0.0215033,0.000677147,0.00237469,-0.00772003
2,9,0,0,0,0,0,0,231.8,254,0,0,0,0,0,0,0,231.8,766,0,0.000616494,0.000492706,0.000859566,0.0162811,-0.00401035,0.000791702,0.000301285,0.000112572,-0.0832497,0.00132736,0.00111664,0.0132602,-0.0221136,0.000753441,0.000925102,-0.00863556
3,0,0,0,0,0,0,0,231.8,254,0,0,0,0,0,0,0,231.8,766,0,0.000273171,0.000645294,0.00124104,0.0157852,-0.00477329,0.000677261,0.000720901,0.000379601,-0.0165688,0.000831451,0.000544433,0.0122302,-0.0202826,0.000944176,0.0010014,-0.00703339
3,1,0,0,0,0,0,0,231.8,254,0,0,0,0,0,0,0,231.8,766,0,0.000997963,0.00106491,0.000325508,0.01651,-0.00603214,0.00094429,0.000911636,0.000989952,0.0258506,0.00109848,0.000658874,0.0122302,-0.0219992,0.000181236,0.000658073,-0.00878815
3,2,0,0,0,0,0,0,231.8,254,0,0,0,0,0,0,0,231.8,766,0,0.000196877,0.000416412,0.00116474,0.0170822,-0.00439182,0.00102058,0.00125496,-1.86916e-06,0.0801719,0.00125107,0.000391846,0.0128405,-0.0204733,0.00147823,-2.8572e-05,-0.00840668
3,3,0,0,0,0,0,0,231.8,254,0,0,0,0,0,0,0,231.8,766,0,-0.000527916,-0.000155793,-9.41086e-05,0.015747,-0.00393406,0.000181351,0.000148697,0.000455895,-0.0716149,0.000106659,4.85228e-05,0.0136798,-0.0216177,-0.000429115,0.000886955,-0.00836853
3,4,0,0,0,0,0,0,231.8,254,0,0,0,0,0,0,0,231.8,766,0,0.000921669,0.000912323,-0.00020855,0.0159378,-0.00324741,0.000677261,0.00117867,0.000608482,0.0374091,0.000564422,8.66698e-05,0.0137942,-0.0219229,0.000677147,0.000391045,-0.00901703
3,5,0,0,0,0,0,0,231.8,254,0,0,0,0,0,0,0,231.8,766,0,-0.000146446,0.000683441,0.00112659,0.0159378,-0.00359074,0.00163094,0.00209419,0.00148586,0.0764335,0.00140366,-0.000790711,0.0153201,-0.0210074,0.00151638,0.00248913,-0.00737671
3,6,0,0,0,0,0,0,231.8,254,0,0,0,0,0,0,0,231.8,766,0,0.00130314,0.00102676,0.00173695,0.0163574,-0.00633732,0.000791702,0.000224991,0.000608482,-0.067991,0.0020903,0.00130737,0.0140994,-0.0210074,0.000944176,0.000543633,-0.00920776
3,7,0,0,0,0,0,0,231.8,254,0,0,0,0,0,0,0,231.8,766,0,0.0005402,-0.00118576,-1.78147e-05,0.0162429,-0.00336185,0.000181351,0.000720901,0.000417748,0.0383247,-0.000427399,0.000391846,0.0163119,-0.0221518,-9.49856e-06,4.77219e-05,-0.00878815
3,8,0,0,0,0,0,0,231.8,254,0,0,0,0,0,0,0,231.8,766,0,-0.000527916,-3.20468e-06,0.000211067,0.0157089,-0.00648991,0.000906143,0.000682754,0.000112572,0.0927604,0.00121292,-2.77711e-05,0.0166171,-0.0212363,0.000753441,0.00069622,-0.0093222
3,9,0,0,0,0,0,0,231.8,254,0,0,0,0,0,0,0,231.8,766,0,-0.000299034,0.000263824,-0.00020855,0.0154037,-0.00893131,0.00056282,0.00114052,0.000379601,-0.0686776,0.000449982,-0.000104065,0.0147097,-0.0217322,0.00109676,0.000848808,-0.00829224
4,0,0,0,0,0,0,0,231.8,254,0,0,0,0,0,0,0,231.8,766,0,0.000845375,0.000683441,0.000630684,0.017044,-0.00854984,0.000982437,0.00106422,0.000989952,0.0374854,0.00231918,0.00115479,0.0174945,-0.0205496,0.00113491,0.000314751,-0.00737671
4,1,0,0,0,0,0,0,231.8,254,0,0,0,0,0,0,0,231.8,766,0,0.000502053,0.000111236,0.000859566,0.0156326,-0.0117542,0.000829849,0.000263138,3.62778e-05,0.101534,0.000182953,0.000162964,0.0151294,-0.0221136,0.00102047,0.000772514,-0.00844482
4,2,0,0,0,0,0,0,231.8,254,0,0,0,0,0,0,0,231.8,766,0,6.14207e-06,-0.000651703,0.000516243,0.015747,-0.0132801,-0.000123825,0.000682754,0.00076107,-0.0763451,3.03648e-05,0.000124817,0.0129168,-0.0220374,0.000562706,0.000848808,-0.00943665
4,3,0,0,0,0,0,0,231.8,254,0,0,0,0,0,0,0,231.8,766,0,-7.01519e-05,0.000454559,0.000859566,0.0168151,-0.0103428,0.000181351,0.00060646,0.000188866,-0.0404107,0.00117477,-0.00101959,0.0155108,-0.0208929,0.000181236,0.00184063,-0.00848297
4,4,0,0,0,0,0,0,231.8,254,0,0,0,0,0,0,0,231.8,766,0,0.000654641,-0.000460968,9.66262e-05,0.0161285,-0.00885502,0.000486526,0.000797195,0.000570335,-0.00993126,0.000907745,0.00058258,0.0162738,-0.0228766,0.00132565,0.00115398,-0.010047
4,5,0,0,0,0,0,0,231.8,254,0,0,0,0,0,0,0,231.8,766,0,0.000463906,0.000149383,-0.000132256,0.0167389,-0.0100376,0.000753555,0.00106422,0.00076107,0.0816215,0.00125107,-0.000332947,0.0147479,-0.021427,0.000906029,0.000734367,-0.00852112
4,6,0,0,0,0,0,0,231.8,254,0,0,0,0,0,0,0,231.8,766,0,0.000196877,-0.000117646,-1.78147e-05,0.0153656,-0.00866428,0.000257645,0.00060646,0.00076107,-0.00222557,-8.40761e-05,-0.0002948,0.0124209,-0.0222662,0.00113491,8.58689e-05,-0.00798706
4,7,0,0,0,0,0,0,231.8,254,0,0,0,0,0,0,0,231.8,766,0,0.000845375,0.000225677,2.03323e-05,0.0157852,-0.0034,0.000295792,-0.000423508,0.000608482,-0.0466668,0.000869598,0.000162964,0.00971249,-0.0213889,0.000906029,-0.000371895,-0.00829224
4,8,0,0,0,0,0,0,231.8,254,0,0,0,0,0,0,0,231.8,766,0,-0.000642356,7.30893e-05,0.000592537,0.0159378,-0.00130192,0.00109688,0.000186844,0.000379601,0.0958121,0.000984039,-0.000790711,0.00917843,-0.0219611,0.000104942,-6.6719e-05,-0.007453
4,9,0,0,0,0,0,0,231.8,254,0,0,0,0,0,0,0,231.8,766,0,0.00206608,0.00140823,0.00116474,0.0160522,-0.000424538,0.00113502,0.00133125,0.000608482,-0.00790947,0.00159439,0.000811462,0.00967434,-0.0207404,0.00147823,0.00168804,-0.0075293
5,0,0,0,0,0,0,0,231.8,254,0,0,0,0,0,0,0,231.8,766,0,0.00130314,0.000607147,0.00177509,0.0168914,0.000567284,0.000715408,0.000911636,0.00076107,-0.0442635,0.00102219,0.00115479,0.00925472,-0.0211218,0.00163082,0.000619926,-0.007453
5,1,0,0,0,0,0,0,231.8,254,0,0,0,0,0,0,0,231.8,766,0,0.000463906,0.000797882,0.000287361,0.0172348,0.00327572,0.000600967,0.000682754,0.00198177,0.107714,0.000793304,0.000201111,0.0127261,-0.0226477,0.00102047,0.00058178,-0.007453
5,2,0,0,0,0,0,0,231.8,254,0,0,0,0,0,0,0,231.8,766,0,0.000578347,0.000683441,0.000668831,0.0175399,0.00461086,0.000677261,0.000415726,0.000951805,0.00338203,0.00147995,0.00145996,0.0144809,-0.02116,0.001936,0.00138287,-0.00913147
5,3,0,0,0,0,0,0,231.8,254,0,0,0,0,0,0,0,231.8,766,0,-0.000566063,0.00133194,0.00139362,0.0158996,0.00716671,0.00132576,-8.0185e-05,0.000112572,-0.0481927,0.000945892,0.000544433,0.0176089,-0.0213126,-8.57925e-05,0.00058178,-0.00756744
5,4,0,0,0,0,0,0,231.8,254,0,0,0,0,0,0,0,231.8,766,0,0.000921669,0.000416412,0.000821419,0.0163192,0.00613674,-9.38424e-06,0.00182716,0.000684776,0.110346,0.00102219,0.000429993,0.0162738,-0.0216559,0.00117306,0.000886955,-0.00859741
5,5,0,0,0,0,0,0,231.8,254,0,0,0,0,0,0,0,231.8,766,0,0.000387612,0.00167526,0.00093586,0.0170822,0.00689968,0.00174538,0.00114052,0.00144772,0.0106681,0.0021666,0.00058258,0.013489,-0.0204733,0.00147823,0.00123028,-0.00710968
5,6,0,0,0,0,0,0,231.8,254,0,0,0,0,0,0,0,231.8,766,0,-0.000680503,0.000797882,0.000134773,0.0162048,0.00812038,-0.000390854,7.24029e-05,0.000799217,-0.0820672,0.000907745,1.03759e-05,0.0129931,-0.0212363,-0.00023838,0.000543633,-0.00813965
5,7,0,0,0,0,0,0,231.8,254,0,0,0,0,0,0,0,231.8,766,0,0.00126499,0.000836029,0.000516243,0.0166626,0.00915035,0.000753555,0.000911636,0.000913658,-0.0169122,0.0015181,0.00184143,0.0140994,-0.0218466,0.000677147,0.000543633,-0.00833038
5,8,0,0,0,0,0,0,231.8,254,0,0,0,0,0,0,0,231.8,766,0,0.000273171,0.000988617,0.00055439,0.0162429,0.00903591,0.000829849,0.000301285,0.000494041,0.0264228,0.000297394,-0.000104065,0.0132983,-0.021427,0.0012112,-0.000143013,-0.00756744
5,9,0,0,0,0,0,0,231.8,254,0,0,0,0,0,0,0,231.8,766,0,0.000654641,0.000263824,0.000478096,0.0162811,0.00922665,0.00105873,0.000797195,0.00106625,0.0797523,0.000755157,0.000620727,0.0150531,-0.0215033,0.00147823,0.000352898,-0.00916962
6,0,0,0,0,0,0,0,231.8,254,0,0,0,0,0,0,0,231.8,766,0,0.000578347,0.000607147,0.000592537,0.0174255,0.0105999,0.00159279,0.0019416,0.000837364,-0.0697457,0.00201401,0.000391846,0.0161593,-0.0205115,0.00163082,-0.000143013,-0.00726227
6,1,0,0,0,0,0,0,231.8,254,0,0,0,0,0,0,0,231.8,766,0,0.00115055,0.000378265,0.000478096,0.0161666,0.0132702,6.69097e-05,0.00106422,0.000532188,0.0369895,0.000984039,0.000658874,0.0169604,-0.0212744,0.000600853,0.00153545,-0.00852112
6,2,0,0,0,0,0,0,231.8,254,0,0,0,0,0,0,0,231.8,766,0,0.000235024,0.0011412,0.000897713,0.0162811,0.0139569,0.000295792,0.000873489,-0.000307045,0.0749839,0.000640716,0.000239258,0.0146334,-0.021694,0.000906029,0.000886955,-0.00947479
6,3,0,0,0,0,0,0,231.8,254,0,0,0,0,0,0,0,231.8,766,0,-3.20049e-05,-0.000270233,-0.000590019,0.0155182,0.0144528,0.000105057,-0.000385361,0.000570335,-0.0682198,-0.000274811,0.000620727,0.0129168,-0.0211218,0.000639,-2.8572e-05,-0.0093222
6,4,0,0,0,0,0,0,231.8,254,0,0,0,0,0,0,0,231.8,766,0,-0.000108299,0.000645294,0.000439949,0.0155944,0.0138043,0.000639114,7.24029e-05,0.000799217,0.0388206,0.000793304,1.03759e-05,0.010628,-0.0225714,0.000867882,0.00069622,-0.00901703
6,5,0,0,0,0,0,0,231.8,254,0,0,0,0,0,0,0,231.8,766,0,0.000807228,7.30893e-05,0.000325508,0.0157852,0.0146054,0.000105057,0.000453873,0.000532188,0.0933707,0.00109848,0.000124817,0.012955,-0.022457,0.00102047,0.000352898,-0.00802521
6,6,0,0,0,0,0,0,231.8,254,0,0,0,0,0,0,0,231.8,766,0,8.2436e-05,0.000874176,0.00093586,0.0162429,0.0109051,0.000295792,0.00117867,0.000112572,-0.0678002,0.00113663,0.000429993,0.0139087,-0.0230292,0.000219383,0.000848808,-0.00852112
6,7,0,0,0,0,0,0,231.8,254,0,0,0,0,0,0,0,231.8,766,0,0.000997963,0.000797882,0.000630684,0.0171585,0.0110577,0.000906143,0.00182716,0.000379601,0.0385917,0.00159439,0.000773315,0.0163119,-0.0213889,0.00136379,0.000886955,-0.00791077
6,8,0,0,0,0,0,0,231.8,254,0,0,0,0,0,0,0,231.8,766,0,-0.000680503,-0.000460968,0.000630684,0.0158615,0.00754818,0.000791702,0.000453873,-0.000230751,0.101038,0.0021666,-0.000714417,0.0146716,-0.0210074,0.000753441,0.0015736,-0.00928406
6,9,0,0,0,0,0,0,231.8,254,0,0,0,0,0,0,0,231.8,766,0,0.000463906,3.49423e-05,-0.000513725,0.0152893,0.00632748,0.000867996,0.000301285,0.000150719,-0.0752389,-0.000198517,0.000544433,0.0173037,-0.0213126,0.000791588,0.00134472,-0.00936035
7,0,0,0,0,0,0,0,231.8,254,0,0,0,0,0,0,0,231.8,766,0,0.000387612,0.00018753,0.00120289,0.0167389,0.00201687,0.00174538,0.00152199,0.00121883,-0.0403344,0.00109848,0.0010022,0.0176089,-0.0207404,0.000753441,0.00184063,-0.00966553
7,1,0,0,0,0,0,0,231.8,254,0,0,0,0,0,0,0,231.8,766,0,-0.000299034,0.000874176,0.00101215,0.0161285,-0.000882301,0.00155464,0.000682754,-0.000268898,-0.00836723,0.000640716,0.00046814,0.0135653,-0.0212363,0.000753441,0.00123028,-0.010047
7,2,0,0,0,0,0,0,231.8,254,0,0,0,0,0,0,0,231.8,766,0,0.000692788,-7.94986e-05,5.84793e-05,0.0173111,0.00159725,0.000639114,0.000720901,0.000837364,0.0805152,0.000602569,0.000925903,0.0141757,-0.0207785,0.00136379,0.0015736,-0.00878815
7,3,0,0,0,0,0,0,231.8,254,0,0,0,0,0,0,0,231.8,766,0,0.000616494,0.000301971,-0.000475578,0.0156326,-0.000462685,0.000448379,-3.89107e-06,0.000150719,-0.00218742,0.000259247,4.85228e-05,0.0137942,-0.0213889,0.00025753,0.000276604,-0.00897888
7,4,0,0,0,0,0,0,231.8,254,0,0,0,0,0,0,0,231.8,766,0,0.00137943,0.00125565,0.000592537,0.0163192,0.00171169,2.87627e-05,0.00110237,0.00133327,-0.0458657,0.000984039,0.000506287,0.0156253,-0.0212744,-9.49856e-06,0.00126843,-0.00848297
7,5,0,0,0,0,0,0,231.8,254,0,0,0,0,0,0,0,231.8,766,0,0.000883522,0.000263824,0.00116474,0.0174636,0.00251278,0.000982437,0.0013694,0.000570335,0.0955451,0.00186142,0.000544433,0.0174182,-0.0210837,0.00147823,0.00138287,-0.00894073
7,6,0,0,0,0,0,0,231.8,254,0,0,0,0,0,0,0,231.8,766,0,0.000273171,-4.13517e-05,0.000897713,0.0156326,-0.00187412,0.000753555,-0.00027092,0.000913658,-0.00298851,0.00106033,0.00115479,0.0179522,-0.02116,0.000715294,0.00134472,-0.00768188
7,7,0,0,0,0,0,0,231.8,254,0,0,0,0,0,0,0,231.8,766,0,0.000730935,-0.000384674,0.000249214,0.0162429,-0.000577125,0.000639114,0.000148697,-1.86916e-06,-0.0464761,-4.59291e-05,0.000620727,0.018143,-0.0232199,0.00025753,-6.6719e-05,-0.00901703
7,8,0,0,0,0,0,0,231.8,254,0,0,0,0,0,0,0,231.8,766,0,0.0011887,0.000797882,0.000821419,0.0160141,0.000910606,0.00102058,0.00102608,0.000722923,0.107218,0.00228104,0.000925903,0.0196688,-0.021427,0.00212673,0.000429192,-0.00844482
7,9,0,0,0,0,0,0,231.8,254,0,0,0,0,0,0,0,231.8,766,0,0.00160831,0.00125565,-9.41086e-05,0.0160522,0.00117764,0.000524673,0.000301285,0.00137142,0.00460274,0.000678863,0.000811462,0.0128787,-0.0215796,0.000715294,0.0022221,-0.00859741
8,0,0,0,0,0,0,0,231.8,254,0,0,0,0,0,0,0,231.8,766,0,0.00145573,0.000340118,-1.78147e-05,0.0161285,0.00316128,-0.000772324,0.000377579,0.000837364,-0.0473534,0.00155624,0.000391846,0.0113147,-0.0219229,0.000219383,0.00130657,-0.00707153
8,1,0,0,0,0,0,0,231.8,254,0,0,0,0,0,0,0,231.8,766,0,0.000769082,0.000836029,0.000401802,0.01548,0.00438198,0.000600967,0.00011055,0.00121883,0.110308,0.000755157,0.000391846,0.00994137,-0.0213889,0.000295677,0.000162163,-0.00779633
8,2,0,0,0,0,0,0,231.8,254,0,0,0,0,0,0,0,231.8,766,0,0.00115055,0.000721588,0.000516243,0.0171966,0.00648006,0.000715408,0.00125496,0.000875511,0.0110877,0.000259247,0.000697021,0.0111621,-0.0211981,0.00144009,0.000886955,-0.00833038
8,3,0,0,0,0,0,0,231.8,254,0,0,0,0,0,0,0,231.8,766,0,0.00126499,-0.000270233,0.000516243,0.0155563,0.00571712,0.000867996,0.00049202,0.00129513,-0.081762,0.000564422,-0.000142212,0.0161212,-0.0222662,0.000829735,0.000543633,-0.00813965
8,4,0,0,0,0,0,0,231.8,254,0,0,0,0,0,0,0,231.8,766,0,0.0005402,0.00110306,0.000287361,0.0153656,0.00800594,0.00102058,0.00060646,0.00076107,-0.0163781,0.000678863,0.0010022,0.0173419,-0.0217322,0.00117306,0.00115398,-0.00871185
8,5,0,0,0,0,0,0,231.8,254,0,0,0,0,0,0,0,231.8,766,0,0.000502053,-0.000270233,0.000211067,0.0169677,0.0048016,0.000257645,0.00114052,0.000303307,0.0250114,0.000411835,0.000735168,0.0186389,-0.0210837,0.000371971,0.000925102,-0.00825409
8,6,0,0,0,0,0,0,231.8,254,0,0,0,0,0,0,0,231.8,766,0,0.00103611,0.0011412,0.000897713,0.0165481,0.00804409,0.00155464,0.000873489,0.000341454,0.0800193,0.000640716,0.00126923,0.0164645,-0.0202063,0.00124935,0.00218395,-0.00943665
8,7,0,0,0,0,0,0,231.8,254,0,0,0,0,0,0,0,231.8,766,0,8.2436e-05,-0.000384674,-0.00108593,0.0156326,0.00468716,0.000257645,-0.000118332,0.000341454,-0.0700127,0.000373688,0.000124817,0.0166552,-0.0208929,0.000867882,0.000391045,-0.00981812
8,8,0,0,0,0,0,0,231.8,254,0,0,0,0,0,0,0,231.8,766,0,0.000769082,-0.000117646,-0.00032299,0.0156326,0.00216946,0.000677261,0.000377579,0.000646629,0.0348533,0.000488129,0.000620727,0.0140231,-0.0221518,0.000867882,0.00069622,-0.00756744
8,9,0,0,0,0,0,0,231.8,254,0,0,0,0,0,0,0,231.8,766,0,0.00122685,0.00117935,0.00055439,0.0147171,0.00499233,0.000257645,7.24029e-05,0.000379601,0.0784171,0.000335541,0.000124817,0.0149768,-0.0222281,-4.76455e-05,0.000391045,-0.00920776
9,0,0,0,0,0,0,0,231.8,254,0,0,0,0,0,0,0,231.8,766,0,0.00103611,0.000340118,0.00143177,0.0163192,0.00438198,0.000715408,0.00133125,0.00129513,-0.0654733,0.00167068,0.000429993,0.0131076,-0.0208929,0.000906029,0.00126843,-0.0093222
9,1,0,0,0,0,0,0,231.8,254,0,0,0,0,0,0,0,231.8,766,0,0.000692788,0.000912323,0.00101215,0.0168914,0.00140652,0.000829849,0.000911636,0.000646629,0.037371,0.00121292,0.000429993,0.0112765,-0.0210074,0.000906029,0.00149731,-0.00760559
9,2,0,0,0,0,0,0,231.8,254,0,0,0,0,0,0,0,231.8,766,0,0.000730935,0.000454559,0.00108845,0.016777,0.0035046,0.000524673,-0.000347214,0.000875511,0.0939811,0.000106659,0.00119293,0.0116198,-0.0214651,0.000982323,0.00149731,-0.00802521
9,3,0,0,0,0,0,0,231.8,254,0,0,0,0,0,0,0,231.8,766,0,0.00141758,0.000301971,0.000821419,0.0161285,0.00567898,0.000982437,0.00106422,0.000417748,-0.0676476,0.00147995,0.00130737,0.0123065,-0.0203589,0.000791588,8.58689e-05,-0.00844482
9,4,0,0,0,0,0,0,231.8,254,0,0,0,0,0,0,0,231.8,766,0,0.000502053,7.30893e-05,0.00150806,0.0158233,0.00792965,0.000143204,0.000835342,0.000608482,0.0382865,0.000259247,0.000544433,0.0135653,-0.0208548,0.000295677,0.00107769,-0.00852112
9,5,0,0,0,0,0,0,231.8,254,0,0,0,0,0,0,0,231.8,766,0,0.00115055,0.000836029,0.00112659,0.0170822,0.00869259,0.00117317,0.00114052,0.000951805,0.100962,0.000831451,0.00138367,0.0178759,-0.0213507,0.000562706,0.00168804,-0.00875
9,6,0,0,0,0,0,0,231.8,254,0,0,0,0,0,0,0,231.8,766,0,0.000883522,-0.00019394,0.000325508,0.0162811,0.00979885,6.69097e-05,0.00049202,0.00026516,-0.0742089,0.00109848,0.000315552,0.0206225,-0.0208548,0.00025753,0.00107769,-0.00768188
9,7,0,0,0,0,0,0,231.8,254,0,0,0,0,0,0,0,231.8,766,0,0.00115055,-0.000117646,-0.000399284,0.0163192,0.0097607,0.000600967,0.00117867,0.000379601,-0.0398003,0.000182953,0.000506287,0.0208895,-0.0215033,0.000677147,0.00210766,-0.00890259
9,8,0,0,0,0,0,0,231.8,254,0,0,0,0,0,0,0,231.8,766,0,0.000845375,0.00129379,0.000516243,0.0160141,0.0066708,-0.000619736,0.00114052,0.00137142,-0.00859611,0.00102219,0.000315552,0.0194781,-0.0214651,-0.000200233,0.000619926,-0.00787262
9,9,0,0,0,0,0,0,231.8,254,0,0,0,0,0,0,0,231.8,766,0,0.000769082,0.000492706,0.000363655,0.0160141,0.00754818,0.000181351,7.24029e-05,-0.000459633,0.08227,0.00140366,0.000887756,0.0133364,-0.0212363,0.000333824,0.00168804,-0.00852112
10,0,0,0,0,0,0,0,231.8,254,0,0,0,0,0,0,0,231.8,766,0,0.000692788,-0.000232087,-0.000818901,0.0160904,0.00735744,0.000372085,0.000797195,0.000303307,-0.00146263,-0.000503693,0.000887756,0.0130313,-0.0222662,0.000486412,0.000734367,-0.00947479
10,1,0,0,0,0,0,0,231.8,254,0,0,0,0,0,0,0,231.8,766,0,0.000921669,0.000797882,0.00146992,0.0166244,0.00487789,0.00170723,0.000759048,0.000417748,-0.0460183,0.00159439,0.00111664,0.0165789,-0.0212744,0.00102047,8.58689e-05,-0.00836853
10,2,0,0,0,0,0,0,231.8,254,0,0,0,0,0,0,0,231.8,766,0,0.000959816,0.00152267,0.00127918,0.0164337,0.00369534,0.00056282,0.00106422,0.00137142,0.0950492,0.000182953,-0.000599976,0.0189822,-0.0210837,0.000753441,0.00168804,-0.00783447
10,3,0,0,0,0,0,0,231.8,254,0,0,0,0,0,0,0,231.8,766,0,0.000616494,0.000683441,0.00166065,0.0166626,0.00209316,0.00136391,0.000148697,0.000494041,-0.00207298,0.00262436,0.000620727,0.0145953,-0.0202444,0.000410118,0.000772514,-0.00699524
10,4,0,0,0,0,0,0,231.8,254,0,0,0,0,0,0,0,231.8,766,0,0.000349465,0.00095047,0.000897713,0.0158996,0.00125393,0.00124947,0.000759048,-1.86916e-06,-0.0453698,0.00109848,0.00096405,0.0108569,-0.0215033,0.000753441,0.000772514,-0.00768188
10,5,0,0,0,0,0,0,231.8,254,0,0,0,0,0,0,0,231.8,766,0,0.000959816,3.49423e-05,-0.000170403,0.0151367,0.00213131,0.000524673,-0.000156479,0.000913658,0.106379,-0.00054184,-0.000752564,0.010094,-0.0205115,0.00109676,-0.000219307,-0.00974182
10,6,0,0,0,0,0,0,231.8,254,0,0,0,0,0,0,0,231.8,766,0,-0.000184593,0.000797882,0.000783272,0.0163192,0.00178799,0.00109688,0.000415726,0.000570335,0.00456459,0.000449982,0.00203217,0.0130694,-0.0217703,0.00136379,0.00111584,-0.00840668
10,7,0,0,0,0,0,0,231.8,254,0,0,0,0,0,0,0,231.8,766,0,0.00168461,-0.000499115,-5.59617e-05,0.0161285,-0.000615272,0.000715408,7.24029e-05,-1.86916e-06,-0.047239,0.000984039,0.00115479,0.0130694,-0.0210455,0.000982323,0.0010014,-0.00791077
10,8,0,0,0,0,0,0,231.8,254,0,0,0,0,0,0,0,231.8,766,0,0.000997963,0.00102676,0.000249214,0.01651,-4.30678e-05,0.00102058,0.00117867,0.000455895,0.109011,0.00071701,0.000697021,0.0142138,-0.0203589,0.0012112,0.00103954,-0.00833038
10,9,0,0,0,0,0,0,231.8,254,0,0,0,0,0,0,0,231.8,766,0,0.000997963,0.000988617,0.00112659,0.0162811,-0.00416294,0.000791702,0.00125496,0.000951805,0.0116599,0.00125107,-0.0002948,0.0137561,-0.0211981,0.00117306,0.00149731,-0.00844482
11,0,0,0,0,0,0,0,231.8,254,0,0,0,0,0,0,0,231.8,766,0,0.000616494,0.000645294,0.000478096,0.0153274,-0.00790134,0.000677261,0.000682754,0.000188866,-0.0809991,0.00155624,0.000620727,0.0118869,-0.0205878,0.000715294,0.00119213,-0.00871185
11,1,0,0,0,0,0,0,231.8,254,0,0,0,0,0,0,0,231.8,766,0,0.0005402,0.000149383,0.00116474,0.0165481,-0.00797764,0.000982437,0.000873489,-0.00011631,-0.0162637,0.00071701,0.000735168,0.0118487,-0.021427,0.0012875,0.000124016,-0.00768188
11,2,0,0,0,0,0,0,231.8,254,0,0,0,0,0,0,0,231.8,766,0,0.00107426,0.000836029,0.000134773,0.0157089,-0.00912205,0.000753555,0.000186844,-0.000307045,0.0264991,0.000526275,-0.000638123,0.0137179,-0.0212363,0.000639,0.000619926,-0.00909332
11,3,0,0,0,0,0,0,231.8,254,0,0,0,0,0,0,0,231.8,766,0,-3.20049e-05,0.000759735,0.000211067,0.0162429,-0.0115635,-8.56782e-05,0.00011055,0.000379601,0.0791419,0.000411835,0.000429993,0.0118487,-0.0223425,0.000524559,0.000467339,-0.0104285
11,4,0,0,0,0,0,0,231.8,254,0,0,0,0,0,0,0,231.8,766,0,0.000463906,0.000378265,0.000706978,0.0165481,-0.00690952,0.000600967,0.00098793,0.000875511,-0.0681817,0.00159439,0.000849609,0.0130313,-0.0207404,0.000333824,0.000772514,-0.00756744
11,5,0,0,0,0,0,0,231.8,254,0,0,0,0,0,0,0,231.8,766,0,0.00122685,-4.13517e-05,0.00112659,0.0164337,-0.0071384,0.00128761,0.00125496,0.000532188,0.0361121,0.000526275,0.00168884,0.0147479,-0.0203207,0.00277523,0.00176434,-0.00920776
11,6,0,0,0,0,0,0,231.8,254,0,0,0,0,0,0,0,231.8,766,0,0.00187534,0.000759735,0.00127918,0.0155563,-0.0034763,0.00140205,0.00102608,0.00118069,0.0745643,0.00113663,0.0010022,0.0143664,-0.0200156,0.000791588,0.00111584,-0.00821594
11,7,0,0,0,0,0,0,231.8,254,0,0,0,0,0,0,0,231.8,766,0,4.4289e-05,0.00171341,0.000516243,0.0161285,-0.00320927,0.000715408,0.00152199,0.000799217,-0.0657021,0.00140366,4.85228e-05,0.0151294,-0.0196722,0.000982323,0.00107769,-0.0075293
11,8,0,0,0,0,0,0,231.8,254,0,0,0,0,0,0,0,231.8,766,0,0.0005402,0.000149383,0.000478096,0.0160141,-0.00240818,0.000791702,0.00049202,0.000455895,0.037371,0.000869598,0.000391846,0.011658,-0.0220755,0.00102047,0.000848808,-0.00852112
11,9,0,0,0,0,0,0,231.8,254,0,0,0,0,0,0,0,231.8,766,0,0.000883522,3.49423e-05,-9.41086e-05,0.0159378,0.000948753,-4.75312e-05,0.000186844,0.000570335,0.0933326,-4.59291e-05,-6.59181e-05,0.0116961,-0.0220374,-0.000390968,0.00020031,-0.00821594
12,0,0,0,0,0,0,0,231.8,254,0,0,0,0,0,0,0,231.8,766,0,-7.01519e-05,0.000912323,0.000630684,0.0154419,0.00483974,0.000906143,0.000644607,0.000227013,-0.0683343,0.000526275,0.00119293,0.0142901,-0.0222281,0.00124935,0.00191692,-0.00836853
12,1,0,0,0,0,0,0,231.8,254,0,0,0,0,0,0,0,231.8,766,0,0.000502053,0.000645294,0.000325508,0.015747,0.00895962,0.000410232,0.00125496,0.000150719,0.0378288,0.000449982,0.000162964,0.016083,-0.0200156,0.000944176,9.57493e-06,-0.00878815
12,2,0,0,0,0,0,0,231.8,254,0,0,0,0,0,0,0,231.8,766,0,-0.00144344,0.000340118,-0.00020855,0.0150222,0.00934109,0.000295792,-0.000156479,-0.000574074,0.100695,-0.000236664,-0.000447388,0.0153582,-0.0219611,0.000333824,0.000619926,-0.00993256
12,3,0,0,0,0,0,0,231.8,254,0,0,0,0,0,0,0,231.8,766,0,0.000311318,-4.13517e-05,0.000439949,0.0161285,0.00873074,0.000333939,0.000415726,-0.000383339,-0.0740945,0.000297394,0.00119293,0.0195544,-0.0217322,0.00113491,-0.000143013,-0.00894073
12,4,0,0,0,0,0,0,231.8,254,0,0,0,0,0,0,0,231.8,766,0,0.000769082,0.000988617,0.00127918,0.0165481,0.0104473,0.00094429,0.00133125,0.000379601,-0.0402962,0.00117477,0.0010022,0.0221103,-0.0209692,0.00144009,0.000925102,-0.00852112
12,5,0,0,0,0,0,0,231.8,254,0,0,0,0,0,0,0,231.8,766,0,0.000502053,0.0012175,0.000478096,0.0157089,0.0104855,0.00140205,0.00148384,0.00129513,-0.00859611,0.00071701,0.000849609,0.019707,-0.0205115,0.00140194,0.00187878,-0.00886444
12,6,0,0,0,0,0,0,231.8,254,0,0,0,0,0,0,0,231.8,766,0,0.000387612,-0.00019394,0.00093586,0.0163955,0.00831112,-0.000390854,0.000682754,0.000455895,0.0815833,0.000984039,0.000391846,0.0166171,-0.0215033,0.000333824,0.000543633,-0.00871185
12,7,0,0,0,0,0,0,231.8,254,0,0,0,0,0,0,0,231.8,766,0,0.000845375,-0.000232087,-1.78147e-05,0.0153656,0.00972256,0.00105873,-4.2038e-05,-0.000535927,-0.00100487,0.000831451,0.00046814,0.017113,-0.0202063,0.00163082,0.00184063,-0.00920776
12,8,0,0,0,0,0,0,231.8,254,0,0,0,0,0,0,0,231.8,766,0,0.00141758,0.000759735,0.00116474,0.0176162,0.00888332,0.00151649,0.000873489,7.44248e-05,-0.0451791,0.00102219,0.0022229,0.0176089,-0.0195959,0.000600853,0.00069622,-0.00775818
12,9,0,0,0,0,0,0,231.8,254,0,0,0,0,0,0,0,231.8,766,0,0.000921669,0.000912323,0.00162251,0.0162429,0.00819668,0.00109688,0.00133125,0.000875511,0.094744,0.000984039,-0.000142212,0.0142138,-0.0197485,0.00109676,0.00126843,-0.00749115
13,0,0,0,0,0,0,0,231.8,254,0,0,0,0,0,0,0,231.8,766,0,0.000387612,-0.000232087,0.000325508,0.0160522,0.00808224,0.000143204,0.00060646,0.000532188,-0.00298851,0.00125107,-0.000485535,0.0174563,-0.0219611,0.000524559,0.00103954,-0.00783447
13,1,0,0,0,0,0,0,231.8,254,0,0,0,0,0,0,0,231.8,766,0,-0.000260887,-0.000117646,-0.000551872,0.0153274,0.00697597,-4.75312e-05,-3.89107e-06,-4.00161e-05,-0.045675,-0.00054184,-0.000142212,0.0173037,-0.022724,0.000333824,0.000238457,-0.0093222
13,2,0,0,0,0,0,0,231.8,254,0,0,0,0,0,0,0,231.8,766,0,0.000387612,0.00125565,0.00093586,0.0161285,0.0054501,0.000906143,0.000911636,0.000532188,0.107142,0.000869598,0.00126923,0.0158923,-0.0206259,0.00136379,0.00111584,-0.00813965
13,3,0,0,0,0,0,0,231.8,254,0,0,0,0,0,0,0,231.8,766,0,-0.000489769,0.00133194,0.000974007,0.0157852,0.00567898,0.00113502,0.00102608,0.000799217,0.00406868,0.00170883,-6.59181e-05,0.0124972,-0.0207022,0.00117306,0.00145916,-0.00928406
13,4,0,0,0,0,0,0,231.8,254,0,0,0,0,0,0,0,231.8,766,0,0.000311318,0.000721588,-0.00020855,0.0162811,0.00529751,0.000486526,-0.000423508,0.000532188,-0.0460564,0.000488129,-0.0002948,0.0105899,-0.0207785,0.00105862,0.000391045,-0.00867371
13,5,0,0,0,0,0,0,231.8,254,0,0,0,0,0,0,0,231.8,766,0,-0.000146446,0.000492706,0.000478096,0.0159759,0.00499233,0.000867996,0.00098793,0.000494041,0.108439,0.00182327,1.03759e-05,0.00978878,-0.0212363,0.000982323,0.00069622,-0.0081778
13,6,0,0,0,0,0,0,231.8,254,0,0,0,0,0,0,0,231.8,766,0,0.000807228,0.000569,0.0010503,0.016777,0.00388607,0.00185982,0.00121681,0.000570335,0.0103629,0.00147995,0.00126923,0.0116961,-0.0202826,0.00132565,0.000734367,-0.00829224
13,7,0,0,0,0,0,0,231.8,254,0,0,0,0,0,0,0,231.8,766,0,0.000769082,0.00095047,0.000706978,0.0156707,0.00270351,0.000791702,0.000759048,0.000913658,-0.0808846,0.000488129,-0.000142212,0.0143283,-0.0215414,0.000829735,0.00115398,-0.00905518
13,8,0,0,0,0,0,0,231.8,254,0,0,0,0,0,0,0,231.8,766,0,-0.000108299,0.000721588,0.00093586,0.0158996,0.00506863,0.000448379,-3.89107e-06,0.00106625,-0.0164925,3.03648e-05,0.000925903,0.012955,-0.0212744,0.000982323,0.00142101,-0.00974182
13,9,0,0,0,0,0,0,231.8,254,0,0,0,0,0,0,0,231.8,766,0,0.000273171,0.000683441,-9.41086e-05,0.0163574,0.007243,0.00117317,0.00098793,0.000455895,0.0258506,0.000945892,-0.00121033,0.012192,-0.0210837,0.000867882,0.000467339,-0.00703339
14,0,0,0,0,0,0,0,231.8,254,0,0,0,0,0,0,0,231.8,766,0,0.000578347,0.000111236,0.000897713,0.0155944,0.00277981,0.000906143,-3.89107e-06,0.000837364,0.0790656,0.00071701,0.00126923,0.0136416,-0.0217703,0.000867882,0.000772514,-0.00897888
14,1,0,0,0,0,0,0,231.8,254,0,0,0,0,0,0,0,231.8,766,0,0.000235024,0.00106491,0.00112659,0.017044,0.00140652,0.00159279,0.00133125,-0.000230751,-0.0688302,0.00125107,0.00168884,0.0147097,-0.0200537,0.00224117,0.000963249,-0.00951294
14,2,0,0,0,0,0,0,231.8,254,0,0,0,0,0,0,0,231.8,766,0,0.000120583,-0.000537262,0.000668831,0.0162811,0.00205502,0.000715408,-8.0185e-05,0.000303307,0.0380576,0.000602569,-0.000485535,0.0187533,-0.0208167,0.00102047,0.00123028,-0.00878815
14,3,0,0,0,0,0,0,231.8,254,0,0,0,0,0,0,0,231.8,766,0,0.0005402,0.000569,0.000211067,0.0156326,0.00297054,0.000715408,0.000339432,0.000379601,0.0735343,0.000411835,0.00107849,0.0177615,-0.0222662,0.00159267,0.000162163,-0.00913147
14,4,0,0,0,0,0,0,231.8,254,0,0,0,0,0,0,0,231.8,766,0,0.000120583,-0.000384674,9.66262e-05,0.0152893,0.00461086,0.00132576,0.000682754,0.00026516,-0.0664651,0.000488129,-0.000447388,0.0171893,-0.0211218,0.000829735,-0.000219307,-0.00859741
14,5,0,0,0,0,0,0,231.8,254,0,0,0,0,0,0,0,231.8,766,0,0.000273171,0.00148453,-0.000628166,0.0165863,0.00697597,0.000486526,-0.000423508,0.00076107,0.0387443,-0.000274811,-0.000599976,0.015816,-0.0215796,0.00132565,0.00142101,-0.00909332
14,6,0,0,0,0,0,0,231.8,254,0,0,0,0,0,0,0,231.8,766,0,0.000235024,-0.000270233,0.0010503,0.016777,0.00930294,0.000410232,0.00098793,0.000227013,0.09215,0.00106033,0.00111664,0.0153964,-0.0205878,0.000906029,0.000543633,-0.00974182
14,7,0,0,0,0,0,0,231.8,254,0,0,0,0,0,0,0,231.8,766,0,0.000425759,0.00137009,0.000401802,0.0160141,0.0108288,0.00155464,0.00152199,0.000989952,-0.0654733,0.00113663,0.00058258,0.0149386,-0.0210455,0.00136379,0.00119213,-0.0081778
14,8,0,0,0,0,0,0,231.8,254,0,0,0,0,0,0,0,231.8,766,0,-0.000680503,7.30893e-05,0.000401802,0.015747,0.014262,-0.000276413,0.000263138,0.000570335,0.0370658,0.000564422,0.00107849,0.0150149,-0.022724,-0.000429115,-0.00018116,-0.00897888
14,9,0,0,0,0,0,0,231.8,254,0,0,0,0,0,0,0,231.8,766,0,0.000235024,0.00018753,0.000211067,0.0158233,0.0097607,0.000486526,0.000301285,0.00026516,0.10039,3.03648e-05,-0.000523682,0.0167315,-0.0213889,-0.000200233,0.000848808,-0.00791077
15,0,0,0,0,0,0,0,231.8,254,0,0,0,0,0,0,0,231.8,766,0,-0.00022274,0.000111236,0.000592537,0.0156707,0.0116681,0.000295792,-4.2038e-05,0.000112572,-0.0742852,0.00109848,0.000315552,0.0156253,-0.0216559,0.00025753,-0.000410042,-0.00829224
15,1,0,0,0,0,0,0,231.8,254,0,0,0,0,0,0,0,231.8,766,0,0.000196877,0.000645294,0.000592537,0.0156707,0.0137661,0.00155464,0.000911636,0.000379601,-0.0399148,0.000831451,0.000239258,0.0150531,-0.0208929,-0.000123939,0.00115398,-0.00970367
15,2,0,0,0,0,0,0,231.8,254,0,0,0,0,0,0,0,231.8,766,0,-0.000108299,0.00159897,0.000706978,0.01651,0.00941738,0.00094429,0.00049202,0.000227013,-0.00893944,0.00174698,0.000620727,0.0133364,-0.0209311,0.000867882,-0.000219307,-0.00821594
15,3,0,0,0,0,0,0,231.8,254,0,0,0,0,0,0,0,231.8,766,0,0.000921669,0.00095047,0.000325508,0.0173874,0.00964626,0.00102058,0.000759048,0.000570335,0.0816215,0.00102219,1.03759e-05,0.0152819,-0.0200156,0.00151638,0.00138287,-0.00882629
15,4,0,0,0,0,0,0,231.8,254,0,0,0,0,0,0,0,231.8,766,0,0.00015873,0.00144638,0.00154621,0.0172729,0.00792965,0.000982437,0.000720901,0.000646629,-0.00096672,0.00132736,0.00096405,0.0138705,-0.0226096,0.000639,0.00058178,-0.00833038
15,5,0,0,0,0,0,0,231.8,254,0,0,0,0,0,0,0,231.8,766,0,0.000502053,0.000492706,0.000821419,0.0168151,0.00651821,0.000791702,0.00121681,-0.000268898,-0.0467049,0.00147995,0.000811462,0.0105136,-0.0208929,0.00136379,0.000352898,-0.00962738
15,6,0,0,0,0,0,0,231.8,254,0,0,0,0,0,0,0,231.8,766,0,0.000235024,0.000378265,0.000401802,0.0165481,0.00541195,0.000867996,0.000224991,0.000875511,0.0933707,-0.00119034,0.000544433,0.0110476,-0.0213507,0.000410118,0.00103954,-0.00855927
15,7,0,0,0,0,0,0,231.8,254,0,0,0,0,0,0,0,231.8,766,0,-0.000451622,0.000301971,0.000439949,0.0147171,0.0035046,0.000829849,0.000720901,0.000112572,-0.00253075,0.000564422,-0.000561829,0.015816,-0.0212744,0.000906029,8.58689e-05,-0.00947479
15,8,0,0,0,0,0,0,231.8,254,0,0,0,0,0,0,0,231.8,766,0,0.000349465,3.49423e-05,-0.000513725,0.0156326,0.00213131,0.000524673,-0.000118332,-0.000307045,-0.0515496,0.000411835,0.00104034,0.0147479,-0.0216559,0.000753441,0.000543633,-0.00974182
15,9,0,0,0,0,0,0,231.8,254,0,0,0,0,0,0,0,231.8,766,0,0.000235024,7.30893e-05,0.000706978,0.01651,0.00388607,0.000333939,0.00125496,-0.000154457,0.070864,0.000755157,0.000773315,0.0128024,-0.0225714,-0.000123939,8.58689e-05,-0.00962738
16,0,0,0,0,0,0,0,231.8,254,0,0,0,0,0,0,0,231.8,766,0,-0.000566063,0.000759735,0.00101215,0.01548,0.00541195,0.00121132,0.00098793,-1.86916e-06,-0.00535362,0.000831451,0.000735168,0.0120013,-0.0211218,0.000639,0.00020031,-0.00878815
16,1,0,0,0,0,0,0,231.8,254,0,0,0,0,0,0,0,231.8,766,0,0.000387612,0.000836029,0.000287361,0.01651,0.00678524,0.000600967,0.00121681,0.000303307,-0.0400674,0.00109848,0.000391846,0.0123065,-0.0211218,0.0012112,0.000772514,-0.00962738
16,2,0,0,0,0,0,0,231.8,254,0,0,0,0,0,0,0,231.8,766,0,0.000807228,0.00133194,0.00185139,0.0171203,0.00583157,0.00109688,0.00121681,0.0010281,0.0713981,0.00109848,0.00199402,0.0126498,-0.0200919,0.00117306,0.00142101,-0.00966553
16,3,0,0,0,0,0,0,231.8,254,0,0,0,0,0,0,0,231.8,766,0,0.000997963,0.000683441,0.00055439,0.0162811,0.00606045,0.00124947,0.000720901,0.000837364,0.00540382,0.000297394,0.00119293,0.0136798,-0.0220374,0.000333824,0.00176434,-0.00836853
16,4,0,0,0,0,0,0,231.8,254,0,0,0,0,0,0,0,231.8,766,0,0.00115055,0.000263824,0.00127918,0.0158615,0.00201687,0.000486526,0.00148384,0.00076107,-0.0598275,0.00132736,0.00058258,0.0145572,-0.0210455,0.00117306,-2.8572e-05,-0.00901703
16,5,0,0,0,0,0,0,231.8,254,0,0,0,0,0,0,0,231.8,766,0,0.000235024,0.000874176,0.00120289,0.0168533,0.00277981,0.000982437,0.0013694,-7.81631e-05,-0.012449,0.000793304,0.000277405,0.0137942,-0.0208929,0.00151638,0.00195507,-0.010047
16,6,0,0,0,0,0,0,231.8,254,0,0,0,0,0,0,0,231.8,766,0,0.000921669,-0.000880585,0.000287361,0.0157852,0.00327572,0.000486526,0.00117867,0.000570335,0.0116599,-0.000389252,0.00123108,0.0137942,-0.0221518,0.00155453,0.00115398,-0.00867371
16,7,0,0,0,0,0,0,231.8,254,0,0,0,0,0,0,0,231.8,766,0,0.000502053,-3.20468e-06,0.000249214,0.0155182,0.00358089,0.000410232,0.000835342,0.00026516,0.0499976,0.0002211,0.000162964,0.0134509,-0.0217703,0.000562706,0.000467339,-0.00890259
16,8,0,0,0,0,0,0,231.8,254,0,0,0,0,0,0,0,231.8,766,0,0.000654641,0.000225677,-9.41086e-05,0.015213,0.00491604,0.00056282,0.00121681,-0.000268898,-0.042051,-0.000198517,0.000658874,0.0135272,-0.0210074,0.000791588,0.00168804,-0.00977997
16,9,0,0,0,0,0,0,231.8,254,0,0,0,0,0,0,0,231.8,766,0,0.000578347,-0.000918732,-0.00032299,0.0159759,0.00464901,-4.75312e-05,0.00121681,3.62778e-05,0.0210441,-0.000122223,0.000925903,0.0137561,-0.0205115,0.000867882,0.00058178,-0.00890259
17,0,0,0,0,0,0,0,231.8,254,0,0,0,0,0,0,0,231.8,766,0,-0.000108299,-7.94986e-05,0.000249214,0.0149841,0.00766262,0.000867996,0.000759048,-1.86916e-06,0.0499595,0.000488129,0.000773315,0.0140231,-0.0221899,0.000791588,0.00191692,-0.00977997
17,1,0,0,0,0,0,0,231.8,254,0,0,0,0,0,0,0,231.8,766,0,0.000196877,0.000378265,0.000211067,0.0159378,0.00712856,0.00056282,0.00098793,-0.000154457,-0.0370156,0.000831451,0.000773315,0.0143664,-0.0217703,0.000143089,0.000467339,-0.00825409
17,2,0,0,0,0,0,0,231.8,254,0,0,0,0,0,0,0,231.8,766,0,0.000730935,0.000492706,-0.000361137,0.0155563,0.00777706,-0.00103935,-4.2038e-05,7.44248e-05,0.0288642,-0.000465546,-0.00067627,0.0146334,-0.022724,2.86484e-05,0.000314751,-0.00913147
17,3,0,0,0,0,0,0,231.8,254,0,0,0,0,0,0,0,231.8,766,0,0.000692788,7.30893e-05,0.000363655,0.0162811,0.0047253,0.000677261,0.000415726,0.000722923,0.0668586,0.000488129,0.000811462,0.0137561,-0.0225333,-0.000696144,0.00145916,-0.00974182
17,4,0,0,0,0,0,0,231.8,254,0,0,0,0,0,0,0,231.8,766,0,0.0005402,0.000149383,0.000745125,0.0157852,0.00297054,0.000906143,0.000720901,-0.000307045,-0.0386941,0.000869598,1.03759e-05,0.0169223,-0.0210455,0.000600853,0.000238457,-0.00878815
17,5,0,0,0,0,0,0,231.8,254,0,0,0,0,0,0,0,231.8,766,0,0.000769082,0.000530853,0.000859566,0.0163192,0.000796166,0.000715408,0.000949783,0.00106625,0.0297797,0.000564422,0.0010022,0.0156253,-0.0213889,-0.000390968,0.00187878,-0.00894073
17,6,0,0,0,0,0,0,231.8,254,0,0,0,0,0,0,0,231.8,766,0,-0.000566063,0.000225677,0.000745125,0.0157852,0.00171169,0.000906143,0.00144569,-0.000230751,0.0753272,0.000297394,0.000697021,0.0161593,-0.0213126,0.00151638,0.00195507,-0.00936035
17,7,0,0,0,0,0,0,231.8,254,0,0,0,0,0,0,0,231.8,766,0,0.000463906,-0.00030838,0.000325508,0.0160141,0.00503048,0.000143204,0.00121681,0.000494041,-0.0444543,0.000373688,-0.000371094,0.0152056,-0.0213126,0.00102047,0.00126843,-0.0093985
17,8,0,0,0,0,0,0,231.8,254,0,0,0,0,0,0,0,231.8,766,0,0.00168461,-0.00030838,0.000439949,0.0165481,0.00548824,0.000715408,0.000682754,-4.00161e-05,-0.0212228,-7.78213e-06,0.000201111,0.0122683,-0.0204352,0.000982323,0.00115398,-0.00947479
17,9,0,0,0,0,0,0,231.8,254,0,0,0,0,0,0,0,231.8,766,0,0.000769082,-0.00030838,5.84793e-05,0.0166244,0.00232204,0.00102058,0.00129311,0.000150719,-0.00207298,0.000488129,-0.000523682,0.0129168,-0.0203589,0.000906029,0.000848808,-0.00707153
18,0,0,0,0,0,0,0,231.8,254,0,0,0,0,0,0,0,231.8,766,0,0.0005402,0.000263824,0.000325508,0.01548,0.00358089,-8.56782e-05,0.000835342,0.000837364,0.054766,-0.000274811,4.85228e-05,0.0141375,-0.0213126,0.000181236,0.00115398,-0.00890259
18,1,0,0,0,0,0,0,231.8,254,0,0,0,0,0,0,0,231.8,766,0,0.000349465,0.00140823,0.000745125,0.0158996,0.000452843,0.000372085,0.000720901,-0.000268898,0.00647194,0.0014418,0.000697021,0.0147097,-0.0207404,0.00102047,0.00184063,-0.0100851
18,2,0,0,0,0,0,0,231.8,254,0,0,0,0,0,0,0,231.8,766,0,0.000196877,-3.20468e-06,0.000897713,0.0162811,-0.00366703,0.00121132,0.000759048,0.000417748,-0.0245797,0.000945892,0.00058258,0.0142138,-0.0213507,0.000562706,0.00153545,-0.00772003
18,3,0,0,0,0,0,0,231.8,254,0,0,0,0,0,0,0,231.8,766,0,0.000692788,0.000492706,0.00093586,0.01548,-0.0046207,-0.000123825,0.000453873,0.000570335,0.0635017,0.000259247,0.000506287,0.0146334,-0.0215414,0.000371971,0.000429192,-0.00825409
18,4,0,0,0,0,0,0,231.8,254,0,0,0,0,0,0,0,231.8,766,0,0.0011124,-0.00030838,5.84793e-05,0.0155563,-0.00744358,0.000600967,0.00060646,7.44248e-05,0.00208504,3.03648e-05,-0.000371094,0.0143283,-0.0209692,0.000486412,0.00123028,-0.00920776
18,5,0,0,0,0,0,0,231.8,254,0,0,0,0,0,0,0,231.8,766,0,0.000235024,-3.20468e-06,0.000821419,0.0162048,-0.0084354,-0.000352707,0.00098793,0.000455895,-0.0227486,0.00174698,-2.77711e-05,0.014252,-0.0219229,0.000639,0.000543633,-0.00802521
18,6,0,0,0,0,0,0,231.8,254,0,0,0,0,0,0,0,231.8,766,0,0.00137943,0.000301971,0.000745125,0.0158233,-0.00797764,0.00102058,0.00117867,0.000341454,0.0742973,0.000564422,-0.0002948,0.0166934,-0.0205878,0.000753441,0.000658073,-0.00951294
18,7,0,0,0,0,0,0,231.8,254,0,0,0,0,0,0,0,231.8,766,0,0.000769082,7.30893e-05,-0.00032299,0.0155563,-0.00736729,0.00102058,0.00148384,0.000951805,0.00956184,-0.000465546,0.000162964,0.0152438,-0.0216559,0.000906029,0.000963249,-0.00859741
18,8,0,0,0,0,0,0,231.8,254,0,0,0,0,0,0,0,231.8,766,0,0.000769082,-7.94986e-05,0.00124104,0.01651,-0.0072147,0.000639114,0.000377579,0.000951805,-0.0284325,0.000259247,-6.59181e-05,0.0164645,-0.0207785,0.000600853,0.000543633,-0.0081015
18,9,0,0,0,0,0,0,231.8,254,0,0,0,0,0,0,0,231.8,766,0,0.00187534,-0.000155793,2.03323e-05,0.0167389,-0.005994,0.000791702,0.00167458,0.00198177,0.0794852,-0.000351105,0.00153625,0.0139849,-0.0213126,0.00174526,0.00176434,-0.00886444
19,0,0,0,0,0,0,0,231.8,254,0,0,0,0,0,0,0,231.8,766,0,-7.01519e-05,-0.000270233,0.000134773,0.0155182,-0.00130192,0.000715408,0.00102608,0.000341454,0.0138343,-0.000312958,-0.000218506,0.0145953,-0.0201682,0.000791588,0.00130657,-0.00890259
19,1,0,0,0,0,0,0,231.8,254,0,0,0,0,0,0,0,231.8,766,0,0.0011887,0.000683441,-0.000132256,0.0158233,0.00426754,0.00159279,0.00159828,0.000570335,-0.0515115,0.000411835,-2.77711e-05,0.0175708,-0.0215796,0.0012112,0.00161175,-0.00905518
19,2,0,0,0,0,0,0,231.8,254,0,0,0,0,0,0,0,231.8,766,0,0.00145573,-7.94986e-05,0.000706978,0.0161666,0.00525936,0.000715408,0.000759048,0.00026516,-0.00665062,0.000411835,-6.59181e-05,0.0189059,-0.0215796,0.000753441,-0.00018116,-0.00794891
19,3,0,0,0,0,0,0,231.8,254,0,0,0,0,0,0,0,231.8,766,0,0.000387612,0.000225677,0.000630684,0.0160141,0.0073193,0.00121132,0.00098793,0.000913658,0.0116981,0.000793304,0.000124817,0.0185626,-0.0213126,0.000867882,0.0022221,-0.00829224
19,4,0,0,0,0,0,0,231.8,254,0,0,0,0,0,0,0,231.8,766,0,0.000921669,0.000645294,-5.59617e-05,0.0171585,0.0119351,0.000753555,0.00224678,0.000608482,0.0573219,0.000640716,0.00119293,0.01944,-0.0207785,0.0012875,0.0015736,-0.00848297
19,5,0,0,0,0,0,0,231.8,254,0,0,0,0,0,0,0,231.8,766,0,-0.000527916,7.30893e-05,0.000325508,0.0150985,0.015025,0.000677261,-0.000347214,-0.000421486,-0.0398766,0.000640716,-0.000180359,0.0140612,-0.0207785,-0.00023838,0.000543633,-0.00875
19,6,0,0,0,0,0,0,231.8,254,0,0,0,0,0,0,0,231.8,766,0,0.000616494,0.000759735,-0.000551872,0.0162048,0.0167035,0.000867996,0.00106422,0.00129513,0.0223029,-0.000274811,-6.59181e-05,0.0139087,-0.0215414,0.00117306,0.000658073,-0.0081015
19,7,0,0,0,0,0,0,231.8,254,0,0,0,0,0,0,0,231.8,766,0,0.000502053,0.000683441,0.00112659,0.016777,0.0212811,0.000906143,0.00106422,0.000722923,0.0537742,0.00125107,0.000544433,0.0149768,-0.0210074,0.00132565,0.00103954,-0.00867371
19,8,0,0,0,0,0,0,231.8,254,0,0,0,0,0,0,0,231.8,766,0,0.000463906,0.000416412,0.000478096,0.0165481,0.0203274,0.00105873,0.000873489,0.000570335,-0.0394189,0.000640716,0.000925903,0.0132602,-0.0205496,0.00140194,0.0010014,-0.00794891
19,9,0,0,0,0,0,0,231.8,254,0,0,0,0,0,0,0,231.8,766,0,0.0011887,3.49423e-05,0.000668831,0.0163574,0.016589,0.000791702,0.00106422,0.000646629,0.0257362,0.000678863,0.00149811,0.0105899,-0.0205115,0.0012875,0.000352898,-0.00783447
20,0,0,0,0,0,0,0,231.8,254,0,0,0,0,0,0,0,231.8,766,0,-0.000375328,0.000721588,0.00055439,0.0162048,0.0167035,0.00117317,0.000720901,-0.000307045,0.0659049,0.000411835,0.00046814,0.0112002,-0.021427,0.000906029,0.00164989,-0.00897888
20,1,0,0,0,0,0,0,231.8,254,0,0,0,0,0,0,0,231.8,766,0,-0.000146446,0.000759735,0.000630684,0.01651,0.015025,0.00102058,0.00060646,0.000494041,-0.0433099,0.000182953,0.000429993,0.0120776,-0.0218085,0.000562706,0.00180248,-0.00829224
20,2,0,0,0,0,0,0,231.8,254,0,0,0,0,0,0,0,231.8,766,0,0.000692788,0.000759735,0.000592537,0.0158233,0.0131176,0.00113502,0.000644607,0.000951805,0.0261939,-4.59291e-05,0.00111664,0.0123446,-0.0213507,0.00124935,0.00107769,-0.00733856
20,3,0,0,0,0,0,0,231.8,254,0,0,0,0,0,0,0,231.8,766,0,0.000502053,3.49423e-05,0.000630684,0.0161666,0.0102566,0.00121132,0.00129311,0.000989952,0.0733817,0.000869598,0.000887756,0.0123828,-0.021427,0.0012112,0.000619926,-0.00825409
20,4,0,0,0,0,0,0,231.8,254,0,0,0,0,0,0,0,231.8,766,0,0.00153202,0.00117935,-0.000284843,0.0159378,0.00304684,2.87627e-05,0.000415726,0.0010281,-0.0484978,0.000488129,-0.000714417,0.0149386,-0.021694,0.000906029,0.000543633,-0.00836853
20,5,0,0,0,0,0,0,231.8,254,0,0,0,0,0,0,0,231.8,766,0,0.000769082,0.000263824,0.00154621,0.0162429,0.00270351,0.000524673,0.000873489,0.000951805,-0.0258385,0.00125107,0.000277405,0.0186389,-0.0210837,0.00113491,0.00130657,-0.00714783
20,6,0,0,0,0,0,0,231.8,254,0,0,0,0,0,0,0,231.8,766,0,0.000311318,0.000836029,0.00017292,0.0154419,0.000834313,0.00113502,0.000720901,0.000913658,-0.00451439,0.000984039,0.000315552,0.0170749,-0.0211981,0.000524559,0.00119213,-0.00875
20,7,0,0,0,0,0,0,231.8,254,0,0,0,0,0,0,0,231.8,766,0,0.000616494,0.000683441,0.000668831,0.0159378,-0.00214115,0.00102058,0.00098793,0.000913658,0.0915015,0.000411835,-0.000218506,0.015549,-0.0205878,0.00109676,0.000658073,-0.00669006
20,8,0,0,0,0,0,0,231.8,254,0,0,0,0,0,0,0,231.8,766,0,0.000654641,0.00106491,0.00120289,0.016777,-0.00149265,0.000372085,0.00159828,0.000837364,0.168177,0.00159439,0.000162964,0.0156253,-0.0208929,0.00124935,0.00283245,-0.00760559
20,9,0,0,0,0,0,0,231.8,254,0,0,0,0,0,0,0,231.8,766,0,0.00145573,0.000454559,0.000630684,0.0169677,-0.0034763,0.000677261,0.00125496,0.000837364,0.137087,0.00125107,0.00153625,0.0169604,-0.0213507,0.00166897,0.000886955,-0.00787262
21,0,0,0,0,0,0,0,231.8,254,0,0,0,0,0,0,0,231.8,766,0,0.000997963,3.49423e-05,0.00120289,0.0160141,-0.00111118,0.00197426,0.0013694,0.000799217,0.0934852,0.000564422,0.000697021,0.0166552,-0.0226859,-9.49856e-06,0.00176434,-0.00722412
21,1,0,0,0,0,0,0,231.8,254,0,0,0,0,0,0,0,231.8,766,0,0.000311318,0.000683441,0.00127918,0.0150604,-0.000195656,0.00136391,0.000873489,0.00026516,-0.0625359,0.00117477,0.00115479,0.0185244,-0.0205496,0.00124935,0.00130657,-0.00928406
21,2,0,0,0,0,0,0,231.8,254,0,0,0,0,0,0,0,231.8,766,0,0.00115055,-0.000460968,-0.00020855,0.0152511,-0.00343815,6.69097e-05,0.000453873,0.000532188,-0.0803124,0.000755157,0.000162964,0.0126879,-0.0221899,0.000143089,8.58689e-05,-0.010047
21,3,0,0,0,0,0,0,231.8,254,0,0,0,0,0,0,0,231.8,766,0,-0.000756797,0.000912323,-0.000246697,0.0153274,-0.00195042,0.000639114,-0.000576096,-1.86916e-06,0.037905,0.0002211,-0.000142212,0.0129168,-0.0213889,0.000600853,0.000467339,-0.00714783
21,4,0,0,0,0,0,0,231.8,254,0,0,0,0,0,0,0,231.8,766,0,-3.20049e-05,0.00129379,0.000668831,0.0166244,0.000185814,0.000677261,-3.89107e-06,0.000227013,-0.0360619,0.000945892,0.00104034,0.0152056,-0.0213507,0.00136379,0.00184063,-0.00916962
21,5,0,0,0,0,0,0,231.8,254,0,0,0,0,0,0,0,231.8,766,0,0.000845375,0.000492706,0.000211067,0.01651,0.00121578,0.000906143,0.000797195,0.000951805,-0.0718056,0.000640716,-0.00117218,0.0135653,-0.0208548,0.000829735,0.000925102,-0.00707153
21,6,0,0,0,0,0,0,231.8,254,0,0,0,0,0,0,0,231.8,766,0,0.000845375,0.000797882,0.000745125,0.0160141,-0.00183598,0.000753555,0.00102608,0.00144772,0.0465263,0.00159439,0.000506287,0.0148242,-0.0219229,0.00117306,0.00134472,-0.00813965
21,7,0,0,0,0,0,0,231.8,254,0,0,0,0,0,0,0,231.8,766,0,0.000730935,0.00133194,0.00055439,0.0168151,-0.00145451,0.00102058,0.00114052,0.00106625,-0.0186669,0.000984039,0.000506287,0.0128405,-0.0208167,0.00170712,0.000124016,-0.00791077
21,8,0,0,0,0,0,0,231.8,254,0,0,0,0,0,0,0,231.8,766,0,0.000273171,7.30893e-05,-1.78147e-05,0.0164718,0.00640377,0.00056282,0.0013694,0.000913658,-0.0832116,0.00117477,0.000429993,0.0134509,-0.021427,0.000906029,0.000810661,-0.00764374
21,9,0,0,0,0,0,0,231.8,254,0,0,0,0,0,0,0,231.8,766,0,-0.000375328,-0.000232087,-5.59617e-05,0.0162811,0.00751003,0.00109688,0.000797195,0.000608482,-0.0349938,-0.000312958,0.000353699,0.0106662,-0.0212744,0.00105862,0.000848808,-0.00909332
22,0,0,0,0,0,0,0,231.8,254,0,0,0,0,0,0,0,231.8,766,0,0.00015873,0.00102676,0.000897713,0.0166244,0.00792965,0.000982437,0.00114052,3.62778e-05,-0.00481956,0.00212845,0.000277405,0.0120013,-0.0205878,0.0012875,0.000238457,-0.00886444
22,1,0,0,0,0,0,0,231.8,254,0,0,0,0,0,0,0,231.8,766,0,0.00103611,0.00125565,0.00135548,0.0167007,0.00899776,0.000867996,0.000759048,0.00106625,0.0358833,0.00163254,0.000735168,0.0147479,-0.0217322,0.000143089,0.00241283,-0.00813965
22,2,0,0,0,0,0,0,231.8,254,0,0,0,0,0,0,0,231.8,766,0,0.00134129,0.00137009,0.00127918,0.01651,0.00495419,0.000867996,0.000339432,3.62778e-05,-0.0570809,0.00178513,0.000849609,0.0131457,-0.0217322,0.0012112,0.00161175,-0.00871185
22,3,0,0,0,0,0,0,231.8,254,0,0,0,0,0,0,0,231.8,766,0,0.000502053,0.00190414,0.00124104,0.0166626,0.00937923,0.00174538,0.000377579,0.000455895,0.0107063,0.000793304,0.00123108,0.0112384,-0.0202444,0.00105862,0.00115398,-0.00821594
22,4,0,0,0,0,0,0,231.8,254,0,0,0,0,0,0,0,231.8,766,0,0.000387612,0.000797882,0.00101215,0.0169296,0.0109814,0.00056282,0.000835342,-4.00161e-05,0.0398124,0.00102219,0.000124817,0.0112765,-0.0215796,0.00166897,0.00103954,-0.00844482
22,5,0,0,0,0,0,0,231.8,254,0,0,0,0,0,0,0,231.8,766,0,0.000120583,0.000378265,0.00017292,0.0156326,0.012164,0.00094429,-0.000309067,0.000227013,-0.0473916,0.000793304,0.00046814,0.012955,-0.0211981,0.000562706,-0.000486336,-0.00859741
22,6,0,0,0,0,0,0,231.8,254,0,0,0,0,0,0,0,231.8,766,0,0.000235024,0.000454559,-0.000437431,0.0153656,0.0146054,0.000715408,-0.000347214,0.00026516,0.0214256,-0.000312958,-0.000256653,0.0107806,-0.0218848,0.000486412,-0.000715218,-0.00974182
22,7,0,0,0,0,0,0,231.8,254,0,0,0,0,0,0,0,231.8,766,0,-3.20049e-05,0.00106491,5.84793e-05,0.0158615,0.0128888,0.00094429,0.000873489,-0.000307045,0.0623573,0.000297394,-0.00140106,0.00860622,-0.0215796,-4.76455e-05,-0.000448189,-0.00890259
22,8,0,0,0,0,0,0,231.8,254,0,0,0,0,0,0,0,231.8,766,0,0.000502053,0.000797882,0.000287361,0.0171585,0.0117062,0.000715408,0.000949783,0.00076107,-0.0441872,0.00106033,0.000620727,0.00952175,-0.0206641,0.00117306,0.00134472,-0.00852112
22,9,0,0,0,0,0,0,231.8,254,0,0,0,0,0,0,0,231.8,766,0,0.000311318,7.30893e-05,0.000859566,0.0163574,0.00510677,0.00193611,0.00152199,0.000646629,0.0261939,0.00113663,-0.000409241,0.0152056,-0.0217703,0.00117306,0.00123028,-0.00768188
23,0,0,0,0,0,0,0,231.8,254,0,0,0,0,0,0,0,231.8,766,0,0.000349465,-0.000270233,0.000706978,0.0165863,0.00533566,0.000982437,0.000301285,0.000303307,0.0738776,0.000678863,0.000429993,0.0187533,-0.0212744,0.0012875,-0.000257454,-0.00821594
23,1,0,0,0,0,0,0,231.8,254,0,0,0,0,0,0,0,231.8,766,0,0.000425759,0.000301971,0.000783272,0.0164337,0.00426754,0.000791702,0.000530167,0.000417748,-0.0464761,0.00147995,0.000620727,0.0161212,-0.0209311,-8.57925e-05,0.00172619,-0.00890259
23,2,0,0,0,0,0,0,231.8,254,0,0,0,0,0,0,0,231.8,766,0,-0.000337181,-7.94986e-05,-0.000132256,0.015747,0.00262722,0.000295792,0.000911636,3.62778e-05,-0.0229012,0.000564422,0.000277405,0.0155871,-0.0218848,0.000982323,0.000848808,-0.00875
23,3,0,0,0,0,0,0,231.8,254,0,0,0,0,0,0,0,231.8,766,0,0.000463906,0.000797882,0.00101215,0.0153274,0.00506863,0.00109688,0.000873489,0.00076107,-0.00253075,0.00170883,-0.000447388,0.0200122,-0.0218085,0.00132565,0.000467339,-0.00695709
23,4,0,0,0,0,0,0,231.8,254,0,0,0,0,0,0,0,231.8,766,0,0.000692788,0.000607147,0.00093586,0.0159378,0.00129208,0.000219498,0.000682754,0.000608482,0.0549567,0.000335541,0.000277405,0.0183718,-0.0205878,0.000944176,0.000658073,-0.00863556
23,5,0,0,0,0,0,0,231.8,254,0,0,0,0,0,0,0,231.8,766,0,0.000235024,0.000378265,0.000439949,0.0155182,-0.00221745,0.000867996,0.00121681,0.000227013,0.00715858,0.000411835,0.00046814,0.0190585,-0.0221136,0.001936,0.000391045,-0.00775818
23,6,0,0,0,0,0,0,231.8,254,0,0,0,0,0,0,0,231.8,766,0,0.000311318,0.00175156,0.00055439,0.015747,-0.000500832,0.000791702,-0.000690537,0.0016766,-0.0248467,0.000297394,0.000162964,0.0197451,-0.0215796,2.86484e-05,0.000314751,-0.00855927
23,7,0,0,0,0,0,0,231.8,254,0,0,0,0,0,0,0,231.8,766,0,-0.000337181,0.00125565,0.000859566,0.0158996,-0.00229374,0.000867996,0.000873489,0.000227013,0.063845,0.0014418,1.03759e-05,0.0216906,-0.0209311,0.00136379,0.000925102,-0.00852112
23,8,0,0,0,0,0,0,231.8,254,0,0,0,0,0,0,0,231.8,766,0,0.00122685,0.000683441,0.00101215,0.0163192,-0.0034763,0.00105873,0.00129311,0.000494041,0.00685341,0.00113663,0.000811462,0.0213092,-0.0196341,0.0012112,0.000886955,-0.00840668
23,9,0,0,0,0,0,0,231.8,254,0,0,0,0,0,0,0,231.8,766,0,0.000730935,0.000683441,0.00135548,0.0168914,-0.00160709,0.00140205,0.00224678,0.000532188,-0.0227868,0.00136551,0.000849609,0.0175708,-0.0213126,0.0012875,0.00161175,-0.010314
24,0,0,0,0,0,0,0,231.8,254,0,0,0,0,0,0,0,231.8,766,0,0.000502053,0.00125565,0.00131733,0.016777,-0.000844154,0.00113502,0.000759048,0.000799217,0.0769294,0.00235733,0.00138367,0.0153201,-0.0189856,0.00117306,0.000505486,-0.0081778
24,1,0,0,0,0,0,0,231.8,254,0,0,0,0,0,0,0,231.8,766,0,0.000692788,0.000721588,0.00055439,0.0156707,0.00197872,0.00113502,0.000224991,-0.000688515,0.0122321,0.000831451,0.00115479,0.0140231,-0.021427,0.00109676,0.000848808,-0.00916962
24,2,0,0,0,0,0,0,231.8,254,0,0,0,0,0,0,0,231.8,766,0,0.000883522,0.000492706,5.84793e-05,0.0164718,0.00255093,0.000867996,0.000873489,0.000646629,-0.02725,0.0015181,-6.59181e-05,0.0126879,-0.0203589,0.0012875,0.00111584,-0.00924591
24,3,0,0,0,0,0,0,231.8,254,0,0,0,0,0,0,0,231.8,766,0,0.000273171,-0.000155793,0.000974007,0.0167389,0.00216946,0.000639114,0.00167458,0.000341454,0.0816978,0.00147995,0.000697021,0.0141757,-0.0212363,0.00105862,0.00123028,-0.00863556
24,4,0,0,0,0,0,0,231.8,254,0,0,0,0,0,0,0,231.8,766,0,0.00107426,0.000263824,0.000668831,0.0166244,0.00449642,-0.000429001,0.000949783,0.000722923,0.0161613,0.000831451,0.000124817,0.0135653,-0.0213889,0.000524559,0.000734367,-0.0081778
24,5,0,0,0,0,0,0,231.8,254,0,0,0,0,0,0,0,231.8,766,0,0.000425759,0.000836029,0.00143177,0.0168914,0.00358089,0.00094429,0.00106422,-0.000383339,-0.050367,0.00113663,0.00104034,0.0111621,-0.021694,0.000944176,0.000848808,-0.010047
24,6,0,0,0,0,0,0,231.8,254,0,0,0,0,0,0,0,231.8,766,0,0.000769082,0.000645294,0.000821419,0.0158233,0.000681725,0.00121132,0.000797195,0.000150719,-0.00485771,0.000640716,0.000162964,0.00910213,-0.0207022,0.000524559,0.000772514,-0.00878815
24,7,0,0,0,0,0,0,231.8,254,0,0,0,0,0,0,0,231.8,766,0,0.00137943,0.000378265,0.00124104,0.0163955,-0.000882301,0.00121132,0.000415726,-0.000192604,0.0305045,-0.000122223,0.00046814,0.0128024,-0.0207022,0.00102047,0.000124016,-0.00993256
24,8,0,0,0,0,0,0,231.8,254,0,0,0,0,0,0,0,231.8,766,0,-0.000451622,0.00095047,0.00158436,0.0158615,-0.000386391,0.00121132,0.000835342,0.000417748,0.154902,0.0014418,0.00046814,0.0126879,-0.0204352,0.00136379,0.00145916,-0.00760559
24,9,0,0,0,0,0,0,231.8,254,0,0,0,0,0,0,0,231.8,766,0,0.0011124,0.000416412,0.00055439,0.0169677,3.32261e-05,0.00117317,0.000797195,0.000608482,0.155283,0.00136551,0.00237549,0.0164264,-0.0205115,0.00102047,0.00134472,-0.00806335
25,0,0,0,0,0,0,0,231.8,254,0,0,0,0,0,0,0,231.8,766,0,0.000616494,0.00125565,0.00101215,0.0164718,0.00152096,0.000982437,0.000453873,0.000150719,0.1327,0.00102219,0.00172699,0.0184481,-0.0209692,0.00117306,0.000658073,-0.00833038
25,1,0,0,0,0,0,0,231.8,254,0,0,0,0,0,0,0,231.8,766,0,0.000311318,0.000988617,0.000745125,0.0163192,0.00171169,0.00109688,0.000644607,0.000684776,0.0251258,0.000373688,-0.000752564,0.0153582,-0.0204733,0.000867882,0.00058178,-0.00852112
25,2,0,0,0,0,0,0,231.8,254,0,0,0,0,0,0,0,231.8,766,0,0.000425759,0.000912323,0.00120289,0.0169677,-0.000729713,0.000600967,0.000339432,3.62778e-05,-0.109762,0.00167068,0.000544433,0.0145572,-0.0210837,0.000715294,0.00103954,-0.00943665
25,3,0,0,0,0,0,0,231.8,254,0,0,0,0,0,0,0,231.8,766,0,0.000463906,0.000111236,0.00124104,0.0171203,0.000300255,0.000715408,0.00117867,-0.000650368,-0.0103509,0.00117477,0.00123108,0.0151294,-0.0218848,0.00117306,0.000543633,-0.00863556
25,4,0,0,0,0,0,0,231.8,254,0,0,0,0,0,0,0,231.8,766,0,0.000730935,0.000721588,9.66262e-05,0.0162048,-0.00267521,0.000486526,0.000301285,0.000341454,0.0285972,0.00106033,0.00123108,0.0130313,-0.0212744,0.000715294,-0.000448189,-0.00882629
25,5,0,0,0,0,0,0,231.8,254,0,0,0,0,0,0,0,231.8,766,0,8.2436e-05,-0.00068985,0.000706978,0.0161285,-0.00423924,0.000906143,0.00117867,-0.00011631,-0.0855386,0.000182953,4.85228e-05,0.0137561,-0.0202063,0.00124935,-0.000410042,-0.00863556
25,6,0,0,0,0,0,0,231.8,254,0,0,0,0,0,0,0,231.8,766,0,0.000502053,0.000378265,0.000363655,0.0155563,-0.00359074,0.000524673,0.000263138,-0.000154457,-0.00768059,0.00117477,0.000620727,0.0102465,-0.0202444,0.000829735,0.000772514,-0.00920776
25,7,0,0,0,0,0,0,231.8,254,0,0,0,0,0,0,0,231.8,766,0,0.000311318,0.000912323,5.84793e-05,0.0163574,-0.00149265,0.00113502,0.00133125,7.44248e-05,0.0453819,0.000678863,0.00184143,0.0127642,-0.0210455,0.000982323,0.000772514,-0.00867371
25,8,0,0,0,0,0,0,231.8,254,0,0,0,0,0,0,0,231.8,766,0,0.000883522,0.000645294,0.0016988,0.0163192,-0.00126377,0.00136391,0.00190346,0.00076107,-0.0797784,0.000793304,0.000658874,0.0152056,-0.0204733,0.00227932,0.00115398,-0.00882629
25,9,0,0,0,0,0,0,231.8,254,0,0,0,0,0,0,0,231.8,766,0,0.000578347,7.30893e-05,9.66262e-05,0.0155182,-0.00160709,2.87627e-05,0.000835342,-1.86916e-06,-0.0519692,0.000793304,0.000620727,0.0137942,-0.0210455,0.000410118,0.00153545,-0.0093222
26,0,0,0,0,0,0,0,231.8,254,0,0,0,0,0,0,0,231.8,766,0,0.000502053,-0.00019394,0.00108845,0.0153274,0.000910606,0.000448379,0.00129311,-0.000192604,-0.0276315,0.00147995,0.000811462,0.0148242,-0.0223807,0.00105862,-0.000104866,-0.00829224
26,1,0,0,0,0,0,0,231.8,254,0,0,0,0,0,0,0,231.8,766,0,0.000997963,3.49423e-05,0.00101215,0.0163574,0.00239834,0.000410232,0.00102608,0.000532188,0.0330604,0.00071701,0.000353699,0.0165408,-0.0213889,-0.00023838,0.00058178,-0.00875
26,2,0,0,0,0,0,0,231.8,254,0,0,0,0,0,0,0,231.8,766,0,0.000387612,0.000836029,0.000745125,0.0161285,0.00586971,0.000105057,0.000530167,-1.86916e-06,-0.0150811,0.000869598,0.00134552,0.0136035,-0.0210074,0.00105862,-0.000219307,-0.00993256
26,3,0,0,0,0,0,0,231.8,254,0,0,0,0,0,0,0,231.8,766,0,0.000463906,-0.000575409,0.00017292,0.0162048,0.0048016,0.000105057,0.000415726,0.000150719,-0.0432336,0.000411835,0.000391846,0.00833919,-0.0213126,0.000562706,0.00058178,-0.00852112
26,4,0,0,0,0,0,0,231.8,254,0,0,0,0,0,0,0,231.8,766,0,0.000578347,0.00125565,0.00116474,0.0157852,0.00674709,0.00109688,0.000224991,0.000570335,0.0495017,0.000678863,0.00104034,0.00898769,-0.0219229,0.00124935,0.0022221,-0.00878815
26,5,0,0,0,0,0,0,231.8,254,0,0,0,0,0,0,0,231.8,766,0,0.00141758,0.000149383,0.000668831,0.0163192,0.00880703,0.000829849,0.00121681,0.0010281,-0.00707024,0.00125107,0.00107849,0.00898769,-0.0203207,0.00136379,0.00138287,-0.00920776
26,6,0,0,0,0,0,0,231.8,254,0,0,0,0,0,0,0,231.8,766,0,0.00134129,0.000912323,0.00124104,0.0162811,0.00949368,0.00121132,0.00117867,0.0016003,-0.0335442,0.00174698,-0.000867005,0.0089114,-0.0202444,0.00159267,0.00115398,-0.00871185
26,7,0,0,0,0,0,0,231.8,254,0,0,0,0,0,0,0,231.8,766,0,0.000235024,0.000111236,0.00127918,0.0168914,0.0097607,0.000639114,0.00060646,3.62778e-05,0.0682319,0.00102219,0.00046814,0.0102847,-0.0221136,0.000944176,0.00107769,-0.00882629
26,8,0,0,0,0,0,0,231.8,254,0,0,0,0,0,0,0,231.8,766,0,0.000807228,-7.94986e-05,0.0010503,0.0160904,0.015559,0.00117317,0.000911636,0.000341454,0.00403053,0.000793304,0.00115479,0.00875881,-0.0206641,0.00136379,0.00107769,-0.00928406
26,9,0,0,0,0,0,0,231.8,254,0,0,0,0,0,0,0,231.8,766,0,0.000845375,0.000988617,0.000630684,0.015213,0.0134991,0.00121132,0.00106422,0.00121883,-0.0325524,0.000945892,0.000849609,0.00906399,-0.0212744,0.000486412,0.000391045,-0.00943665
27,0,0,0,0,0,0,0,231.8,254,0,0,0,0,0,0,0,231.8,766,0,0.00164646,0.000607147,-0.00032299,0.0159378,0.00991329,0.000753555,0.000682754,0.000837364,0.0772727,0.000793304,0.000391846,0.0112002,-0.02116,0.000677147,0.00058178,-0.00943665
27,1,0,0,0,0,0,0,231.8,254,0,0,0,0,0,0,0,231.8,766,0,0.00015873,0.000454559,0.00177509,0.01651,0.00449642,0.00193611,0.00152199,0.000303307,0.0123466,0.000831451,0.00123108,0.0165026,-0.0208929,0.00113491,0.00195507,-0.00913147
27,2,0,0,0,0,0,0,231.8,254,0,0,0,0,0,0,0,231.8,766,0,0.000769082,0.000569,-0.000132256,0.0161666,0.00216946,0.000829849,0.00098793,0.000722923,-0.0525414,0.00071701,0.00123108,0.0174945,-0.0216177,0.000486412,0.000848808,-0.00882629
27,3,0,0,0,0,0,0,231.8,254,0,0,0,0,0,0,0,231.8,766,0,8.2436e-05,0.000874176,0.000630684,0.0171203,7.13731e-05,0.00136391,0.000759048,-0.000268898,-0.00748985,0.000564422,0.000124817,0.0189059,-0.0207404,0.000982323,0.00107769,-0.00844482
27,4,0,0,0,0,0,0,231.8,254,0,0,0,0,0,0,0,231.8,766,0,0.000883522,0.000416412,-0.00032299,0.0155563,0.00213131,0.000867996,3.42559e-05,0.00114254,0.0188697,0.000755157,-0.000752564,0.0210803,-0.0211218,0.000600853,0.0010014,-0.00916962
27,5,0,0,0,0,0,0,231.8,254,0,0,0,0,0,0,0,231.8,766,0,0.000578347,-0.000117646,9.66262e-05,0.0156326,0.00144466,0.000600967,0.000949783,0.000150719,0.0566734,0.000907745,0.000620727,0.0187533,-0.0222662,0.00136379,0.00069622,-0.00859741
27,6,0,0,0,0,0,0,231.8,254,0,0,0,0,0,0,0,231.8,766,0,0.000769082,0.000530853,0.00173695,0.0167389,0.00232204,0.00140205,3.42559e-05,0.00156216,-0.0380074,0.000488129,0.000849609,0.021271,-0.0213507,0.00197414,0.00126843,-0.0068045
27,7,0,0,0,0,0,0,231.8,254,0,0,0,0,0,0,0,231.8,766,0,0.0005402,0.000912323,0.00116474,0.0169677,0.00316128,0.000867996,0.00106422,0.00076107,0.0253928,0.00228104,0.00241364,0.0210803,-0.0205496,0.00102047,0.00206951,-0.0081778
27,8,0,0,0,0,0,0,231.8,254,0,0,0,0,0,0,0,231.8,766,0,0.000235024,0.0011412,0.000363655,0.0159759,0.00308498,0.000295792,0.000453873,0.000188866,0.0551475,0.000373688,-0.000447388,0.0179141,-0.0218466,0.00025753,-0.00166889,-0.00875
27,9,0,0,0,0,0,0,231.8,254,0,0,0,0,0,0,0,231.8,766,0,0.000273171,7.30893e-05,0.000249214,0.0154037,-0.000844154,0.000677261,0.000224991,-0.000230751,-0.0363671,-0.00016037,0.000201111,0.0115817,-0.022457,0.00117306,0.00134472,-0.0107718
28,0,0,0,0,0,0,0,231.8,254,0,0,0,0,0,0,0,231.8,766,0,0.00195164,0.000721588,0.000363655,0.0163192,0.000262108,0.000829849,0.000720901,-7.81631e-05,0.0317634,0.000678863,0.000849609,0.00849178,-0.0215033,0.000944176,0.00107769,-0.00760559
28,1,0,0,0,0,0,0,231.8,254,0,0,0,0,0,0,0,231.8,766,0,0.000959816,0.00095047,0.00108845,0.0162811,0.00247463,0.00117317,0.00102608,0.000684776,0.0704444,0.00106033,0.000162964,0.011925,-0.0221518,0.000906029,0.00130657,-0.00836853
28,2,0,0,0,0,0,0,231.8,254,0,0,0,0,0,0,0,231.8,766,0,0.00164646,0.00159897,0.000249214,0.0158615,0.00323757,0.000791702,0.000720901,0.00121883,-0.0377404,0.00113663,1.03759e-05,0.0123828,-0.0217322,0.0012875,0.000619926,-0.00772003
28,3,0,0,0,0,0,0,231.8,254,0,0,0,0,0,0,0,231.8,766,0,0.00137943,0.00110306,0.00139362,0.0166626,0.00319942,0.00094429,0.00133125,0.00137142,0.0307716,0.000984039,0.0010022,0.0126117,-0.0222281,0.000829735,0.00115398,-0.00779633
28,4,0,0,0,0,0,0,231.8,254,0,0,0,0,0,0,0,231.8,766,0,0.00015873,0.000912323,0.000478096,0.0162429,0.00323757,0.000448379,0.000339432,-0.000192604,0.0775016,0.00174698,0.00046814,0.0150531,-0.0217322,0.000867882,0.00069622,-0.00882629
28,5,0,0,0,0,0,0,231.8,254,0,0,0,0,0,0,0,231.8,766,0,0.000692788,0.000301971,-0.000361137,0.0162048,0.0060223,-0.000276413,0.000949783,0.000455895,-0.0451028,0.000411835,8.66698e-05,0.0164645,-0.0220755,0.000791588,0.000314751,-0.00890259
28,6,0,0,0,0,0,0,231.8,254,0,0,0,0,0,0,0,231.8,766,0,0.000578347,0.000225677,9.66262e-05,0.0162048,0.009837,0.00155464,0.000644607,7.44248e-05,-0.0221764,0.000259247,-0.000523682,0.017113,-0.0204352,0.00113491,0.000276604,-0.00875
28,7,0,0,0,0,0,0,231.8,254,0,0,0,0,0,0,0,231.8,766,0,0.000578347,0.00125565,0.000630684,0.0155182,0.0106762,0.000639114,-0.00065239,0.000455895,0.00101692,0.00071701,0.000315552,0.0210421,-0.021694,-0.000276527,0.000925102,-0.00897888
28,8,0,0,0,0,0,0,231.8,254,0,0,0,0,0,0,0,231.8,766,0,0.000273171,-0.000384674,0.00093586,0.0165863,0.00922665,0.00132576,0.00114052,-0.000268898,0.0944007,0.00163254,0.000735168,0.0182956,-0.0206259,0.00113491,0.00145916,-0.00794891
28,9,0,0,0,0,0,0,231.8,254,0,0,0,0,0,0,0,231.8,766,0,0.00122685,0.000683441,0.000363655,0.0165863,0.00903591,0.00140205,0.000301285,0.000608482,0.17203,-0.000732575,0.00115479,0.0149768,-0.0201682,0.00159267,0.00237469,-0.00852112
29,0,0,0,0,0,0,0,231.8,254,0,0,0,0,0,0,0,231.8,766,0,0.00137943,0.000378265,0.000363655,0.0158996,0.00606045,0.000410232,0.000263138,0.000379601,0.140139,-7.78213e-06,-0.000104065,0.0175708,-0.0214651,0.000410118,0.0010014,-0.00962738
29,1,0,0,0,0,0,0,231.8,254,0,0,0,0,0,0,0,231.8,766,0,-0.000527916,-0.000384674,0.000325508,0.0155563,0.00419125,0.000410232,-0.000423508,0.000684776,0.0951637,0.00102219,-0.00067627,0.0154727,-0.0206641,-0.000123939,-0.000219307,-0.00756744
29,2,0,0,0,0,0,0,231.8,254,0,0,0,0,0,0,0,231.8,766,0,0.000235024,0.000797882,9.66262e-05,0.0167007,0.00804409,0.000715408,0.000186844,0.000455895,-0.0614297,0.000182953,0.000925903,0.014519,-0.0221136,0.00102047,0.0015736,-0.00852112
29,3,0,0,0,0,0,0,231.8,254,0,0,0,0,0,0,0,231.8,766,0,0.00149387,0.00137009,0.000287361,0.0168914,0.00991329,0.000448379,0.00106422,0.00110439,-0.0787484,0.000640716,0.0010022,0.0156634,-0.0226096,0.000448265,0.00130657,-0.0081778
29,4,0,0,0,0,0,0,231.8,254,0,0,0,0,0,0,0,231.8,766,0,0.000654641,0.000836029,0.00108845,0.0164718,0.00758633,0.00128761,0.000263138,0.000455895,0.0408424,0.00163254,-0.000256653,0.0176471,-0.0194434,0.00147823,0.000886955,-0.00863556
29,5,0,0,0,0,0,0,231.8,254,0,0,0,0,0,0,0,231.8,766,0,0.00107426,0.000225677,0.000363655,0.0162429,0.0054501,0.000372085,0.00106422,0.00118069,-0.0348794,0.000984039,0.000201111,0.0149768,-0.0220755,0.00117306,0.00138287,-0.00840668
29,6,0,0,0,0,0,0,231.8,254,0,0,0,0,0,0,0,231.8,766,0,0.000578347,-0.000155793,0.00055439,0.0165863,0.00857815,0.000791702,0.000148697,-0.000230751,-0.0717675,0.000678863,0.000239258,0.0169986,-0.0207785,0.00140194,-0.000524483,-0.00691895
29,7,0,0,0,0,0,0,231.8,254,0,0,0,0,0,0,0,231.8,766,0,0.000235024,0.000912323,0.000516243,0.0154037,0.0102948,0.00094429,0.000224991,0.000570335,0.0477851,0.000449982,0.0010022,0.0167315,-0.0212744,0.000104942,0.00103954,-0.00909332
29,8,0,0,0,0,0,0,231.8,254,0,0,0,0,0,0,0,231.8,766,0,0.000502053,-0.000460968,0.000821419,0.0161285,0.00609859,0.000753555,0.00110237,0.000227013,-0.0193536,0.000640716,-0.000447388,0.0135653,-0.0213507,0.000486412,0.000505486,-0.00863556
29,9,0,0,0,0,0,0,231.8,254,0,0,0,0,0,0,0,231.8,766,0,-0.00022274,0.000340118,9.66262e-05,0.0150985,0.00663265,0.000906143,-4.2038e-05,0.000188866,-0.0825249,0.000640716,0.000315552,0.0134127,-0.0219611,0.000867882,0.00119213,-0.0081015
30,0,0,0,0,0,0,0,231.8,254,0,0,0,0,0,0,0,231.8,766,0,0.00103611,0.00102676,0.000249214,0.0158615,0.00621304,0.000639114,-8.0185e-05,0.000417748,-0.0331246,0.00113663,0.00172699,0.0157016,-0.0212363,0.000906029,0.000886955,-0.00875
30,1,0,0,0,0,0,0,231.8,254,0,0,0,0,0,0,0,231.8,766,0,0.000273171,0.000912323,0.000859566,0.0158615,0.00644192,0.000639114,0.000530167,0.000684776,-0.00459068,0.000755157,-0.000142212,0.01841,-0.0206641,0.000219383,-0.000295601,-0.00733856
30,2,0,0,0,0,0,0,231.8,254,0,0,0,0,0,0,0,231.8,766,0,0.000845375,0.000912323,0.000401802,0.0163955,0.00430569,0.000715408,0.000759048,0.00129513,0.0352729,0.00140366,0.000239258,0.0173419,-0.0219611,0.00170712,0.00153545,-0.0093985
30,3,0,0,0,0,0,0,231.8,254,0,0,0,0,0,0,0,231.8,766,0,0.000311318,0.000683441,-0.000246697,0.016777,0.00632748,0.000829849,0.00106422,0.000837364,-0.0581872,0.00109848,-0.000218506,0.0186007,-0.019863,0.00212673,0.00187878,-0.00684265
30,4,0,0,0,0,0,0,231.8,254,0,0,0,0,0,0,0,231.8,766,0,0.000730935,-0.000270233,0.000897713,0.01548,0.00346645,0.00109688,0.00098793,0.000722923,0.00940926,0.000869598,-0.000218506,0.0149768,-0.022724,0.00109676,0.00134472,-0.00726227
30,5,0,0,0,0,0,0,231.8,254,0,0,0,0,0,0,0,231.8,766,0,0.00015873,0.000912323,-0.000361137,0.0154419,0.00274166,0.000372085,-0.000347214,-0.000154457,0.0422157,-0.000198517,0.000162964,0.014252,-0.0215033,0.000333824,-0.000791511,-0.00890259
30,6,0,0,0,0,0,0,231.8,254,0,0,0,0,0,0,0,231.8,766,0,-7.01519e-05,3.49423e-05,0.000821419,0.0155182,0.000834313,0.000295792,0.000873489,-4.00161e-05,-0.0479638,0.000297394,-0.000104065,0.0166171,-0.0231055,0.000906029,0.000124016,-0.00859741
30,7,0,0,0,0,0,0,231.8,254,0,0,0,0,0,0,0,231.8,766,0,0.000502053,0.000149383,0.000706978,0.0157089,0.00125393,0.00109688,7.24029e-05,0.000379601,0.02051,0.000869598,0.0010022,0.01738,-0.0213126,0.000562706,0.00184063,-0.00901703
30,8,0,0,0,0,0,0,231.8,254,0,0,0,0,0,0,0,231.8,766,0,0.000654641,0.00182785,9.66262e-05,0.0168151,0.000262108,0.00189796,0.00121681,7.44248e-05,0.0621665,0.00113663,0.00046814,0.0172656,-0.0202826,0.0018597,0.000658073,-0.00760559
30,9,0,0,0,0,0,0,231.8,254,0,0,0,0,0,0,0,231.8,766,0,0.000387612,0.000454559,0.000592537,0.0159378,-0.00122562,0.000486526,0.00121681,0.000227013,-0.0463235,0.000526275,0.00145996,0.0153201,-0.0223044,0.000562706,0.000886955,-0.00943665
31,0,0,0,0,0,0,0,231.8,254,0,0,0,0,0,0,0,231.8,766,0,-0.000489769,0.00163712,0.00055439,0.016777,-0.000119362,0.00109688,0.000186844,-0.000421486,0.027262,0.000678863,0.000162964,0.0142901,-0.0219611,0.000867882,0.000658073,-0.0093222
31,1,0,0,0,0,0,0,231.8,254,0,0,0,0,0,0,0,231.8,766,0,-0.00022274,-3.20468e-06,0.000821419,0.0168914,0.000300255,0.00117317,0.000644607,0.000188866,0.0722373,0.000831451,8.66698e-05,0.00944546,-0.0218848,0.000791588,8.58689e-05,-0.00829224
31,2,0,0,0,0,0,0,231.8,254,0,0,0,0,0,0,0,231.8,766,0,0.000425759,0.000340118,-0.000857048,0.0162048,0.00182613,0.000257645,0.00060646,0.00026516,-0.0477349,0.000144806,-0.000180359,0.0107043,-0.0219992,0.000448265,0.000505486,-0.00920776
31,3,0,0,0,0,0,0,231.8,254,0,0,0,0,0,0,0,231.8,766,0,0.000883522,0.00102676,0.000134773,0.0164337,0.00495419,0.000600967,0.00110237,0.000646629,-0.0237786,0.000678863,0.000353699,0.0115054,-0.0212744,6.67954e-05,-0.000143013,-0.00924591
31,4,0,0,0,0,0,0,231.8,254,0,0,0,0,0,0,0,231.8,766,0,-0.000909385,0.00125565,0.00150806,0.0163574,0.0048016,0.000867996,0.000186844,0.00114254,-0.00272148,0.00102219,-0.000218506,0.014786,-0.0209311,0.000715294,0.000810661,-0.00909332
31,5,0,0,0,0,0,0,231.8,254,0,0,0,0,0,0,0,231.8,766,0,0.0005402,0.0012175,0.00017292,0.0171203,0.00457272,0.00121132,-3.89107e-06,0.00076107,0.0565208,3.03648e-05,0.000429993,0.0147479,-0.0216559,0.00140194,0.000543633,-0.00916962
31,6,0,0,0,0,0,0,231.8,254,0,0,0,0,0,0,0,231.8,766,0,0.000273171,0.000225677,0.000134773,0.0160141,0.0022076,0.000906143,0.000415726,-0.000421486,0.00582344,0.00106033,0.00104034,0.0126879,-0.0222662,0.000753441,0.000162163,-0.00882629
31,7,0,0,0,0,0,0,231.8,254,0,0,0,0,0,0,0,231.8,766,0,-0.000337181,0.000683441,0.000668831,0.0160904,-0.000691566,0.00113502,0.000339432,0.000188866,-0.0269448,0.000755157,0.000658874,0.010628,-0.0216177,0.000791588,0.000162163,-0.0068808
31,8,0,0,0,0,0,0,231.8,254,0,0,0,0,0,0,0,231.8,766,0,0.000883522,7.30893e-05,0.000897713,0.0168151,0.000605431,0.000677261,0.00167458,0.000875511,0.0635398,0.000526275,0.00145996,0.0119632,-0.0213507,0.00109676,0.000886955,-0.00871185
31,9,0,0,0,0,0,0,231.8,254,0,0,0,0,0,0,0,231.8,766,0,0.000730935,0.000416412,0.000516243,0.0159378,0.00255093,0.00193611,0.00060646,0.000494041,0.00586159,0.00071701,0.000429993,0.0136416,-0.0200537,0.00147823,0.000619926,-0.00772003
32,0,0,0,0,0,0,0,231.8,254,0,0,0,0,0,0,0,231.8,766,0,0.00103611,0.000988617,0.00112659,0.0159378,0.00491604,0.00147835,0.000377579,0.00076107,-0.0237405,0.00132736,0.000658874,0.0185626,-0.0213889,0.000944176,0.00138287,-0.00878815
32,1,0,0,0,0,0,0,231.8,254,0,0,0,0,0,0,0,231.8,766,0,0.000692788,0.00148453,0.00116474,0.0161285,0.00483974,0.00132576,0.00060646,0.00106625,0.0771964,0.00071701,0.000353699,0.0139849,-0.0210455,0.000867882,0.00115398,-0.00741486
32,2,0,0,0,0,0,0,231.8,254,0,0,0,0,0,0,0,231.8,766,0,0.00103611,0.00110306,0.00135548,0.017044,0.00571712,0.000867996,0.000453873,0.000112572,0.011927,0.00136551,0.000811462,0.0141757,-0.0208167,0.000753441,0.00149731,-0.0081015
32,3,0,0,0,0,0,0,231.8,254,0,0,0,0,0,0,0,231.8,766,0,0.000463906,-7.94986e-05,-0.000132256,0.0169296,0.00720486,0.000410232,0.000759048,-4.00161e-05,-0.0281655,0.000831451,0.000353699,0.0109332,-0.0208167,0.000562706,0.000543633,-0.00840668
32,4,0,0,0,0,0,0,231.8,254,0,0,0,0,0,0,0,231.8,766,0,-0.000833091,0.00018753,0.00017292,0.015213,0.00991329,0.000295792,0.000682754,-0.000726662,0.0817359,0.000449982,-0.000638123,0.00982693,-0.0210455,0.00025753,0.00020031,-0.00951294
32,5,0,0,0,0,0,0,231.8,254,0,0,0,0,0,0,0,231.8,766,0,0.000387612,0.000111236,-0.000246697,0.0159759,0.00838741,2.87627e-05,0.000415726,0.000799217,0.0144828,-4.59291e-05,-0.0002948,0.00872066,-0.0219611,0.000524559,0.000162163,-0.00905518
32,6,0,0,0,0,0,0,231.8,254,0,0,0,0,0,0,0,231.8,766,0,0.000196877,-3.20468e-06,0.000249214,0.0158615,0.00449642,0.000715408,0.000949783,-0.000917397,-0.0514352,0.000640716,-0.000218506,0.0116198,-0.0207785,0.000906029,0.000238457,-0.00840668
32,7,0,0,0,0,0,0,231.8,254,0,0,0,0,0,0,0,231.8,766,0,0.000959816,0.0012175,0.00017292,0.0155944,0.0101803,0.00140205,0.000339432,0.00148586,-0.006231,0.000907745,-0.0002948,0.0123828,-0.0219229,0.000410118,0.00069622,-0.0075293
32,8,0,0,0,0,0,0,231.8,254,0,0,0,0,0,0,0,231.8,766,0,8.2436e-05,0.00110306,0.000668831,0.0156326,0.0130795,0.000867996,0.000911636,0.000303307,0.0287498,0.000602569,0.000506287,0.0149768,-0.021427,0.0012875,0.00218395,-0.00798706
32,9,0,0,0,0,0,0,231.8,254,0,0,0,0,0,0,0,231.8,766,0,0.000692788,0.00148453,0.000745125,0.0160141,0.0148724,0.00102058,0.000453873,0.000303307,0.155245,0.00071701,0.000162964,0.0127261,-0.0213507,0.00105862,0.000886955,-0.00840668
33,0,0,0,0,0,0,0,231.8,254,0,0,0,0,0,0,0,231.8,766,0,0.000273171,-4.13517e-05,-0.000132256,0.0157089,0.0171994,-0.000963059,0.000568314,0.000188866,0.155321,0.000411835,8.66698e-05,0.0136035,-0.0219229,-0.000810585,0.000429192,-0.0101233
33,1,0,0,0,0,0,0,231.8,254,0,0,0,0,0,0,0,231.8,766,0,-0.000833091,3.49423e-05,9.66262e-05,0.0160141,0.0157879,-9.38424e-06,-8.0185e-05,-0.00118443,0.128123,0.000945892,0.000391846,0.0152056,-0.02116,0.000333824,-0.000143013,-0.00833038
33,2,0,0,0,0,0,0,231.8,254,0,0,0,0,0,0,0,231.8,766,0,4.4289e-05,-7.94986e-05,-0.000513725,0.0155563,0.0159024,0.000410232,0.000530167,-0.000574074,0.0251258,0.0002211,0.000544433,0.0137942,-0.0208929,0.000181236,0.000772514,-0.00798706
33,3,0,0,0,0,0,0,231.8,254,0,0,0,0,0,0,0,231.8,766,0,0.000692788,0.000149383,-0.000628166,0.0155944,0.0115918,0.000677261,0.000949783,0.000455895,-0.107473,0.0002211,0.00104034,0.0105899,-0.0210455,0.00105862,0.00111584,-0.00920776
33,4,0,0,0,0,0,0,231.8,254,0,0,0,0,0,0,0,231.8,766,0,0.00130314,0.0011412,0.00112659,0.0163192,0.00953182,0.00121132,0.000377579,0.00106625,-0.0109994,0.000449982,-0.000485535,0.0102465,-0.0210074,0.00117306,0.000810661,-0.00821594
33,5,0,0,0,0,0,0,231.8,254,0,0,0,0,0,0,0,231.8,766,0,0.000845375,0.000721588,0.000783272,0.0165863,0.00411495,0.00151649,0.000644607,0.000646629,0.0305808,0.000831451,0.000658874,0.0140231,-0.0219992,0.0012875,0.00294689,-0.00791077
33,6,0,0,0,0,0,0,231.8,254,0,0,0,0,0,0,0,231.8,766,0,0.000502053,0.000149383,0.000592537,0.0166626,0.00323757,0.000753555,0.000759048,0.000646629,-0.0866067,0.00125107,0.000887756,0.0152438,-0.0211218,0.000333824,-0.000295601,-0.00871185
33,7,0,0,0,0,0,0,231.8,254,0,0,0,0,0,0,0,231.8,766,0,0.00015873,0.000416412,0.00112659,0.0158233,0.0009869,0.000600967,0.00129311,0.00121883,-0.00714653,0.00125107,0.000735168,0.0139849,-0.0215414,0.000448265,9.57493e-06,-0.00882629
33,8,0,0,0,0,0,0,231.8,254,0,0,0,0,0,0,0,231.8,766,0,0.000959816,0.000759735,0.00116474,0.0170822,-8.12148e-05,0.00102058,0.00163643,0.000455895,0.0440086,0.00117477,0.00119293,0.0155108,-0.0212363,0.00140194,0.00203136,-0.00890259
33,9,0,0,0,0,0,0,231.8,254,0,0,0,0,0,0,0,231.8,766,0,4.4289e-05,-0.000117646,0.00101215,0.0167389,0.00136837,0.00105873,0.000415726,-7.81631e-05,-0.0810754,0.00117477,0.00107849,0.0153201,-0.0212744,0.000791588,0.00119213,-0.00974182
34,0,0,0,0,0,0,0,231.8,254,0,0,0,0,0,0,0,231.8,766,0,0.000769082,0.000454559,0.000592537,0.0164718,-0.00141636,0.000982437,0.000720901,0.000875511,-0.05216,-0.000198517,0.00138367,0.0167315,-0.0207785,0.000333824,0.00119213,-0.00768188
34,1,0,0,0,0,0,0,231.8,254,0,0,0,0,0,0,0,231.8,766,0,0.000463906,0.000607147,0.00101215,0.0155944,-0.00511662,0.000791702,0.000835342,0.00106625,-0.0287759,0.000678863,-0.000142212,0.0194781,-0.0208548,0.000677147,0.000238457,-0.00867371
34,2,0,0,0,0,0,0,231.8,254,0,0,0,0,0,0,0,231.8,766,0,0.000349465,7.30893e-05,9.66262e-05,0.0157089,-0.0072147,0.000105057,0.00102608,0.000455895,0.0336326,0.0002211,-0.00143921,0.0183718,-0.0211218,0.00025753,0.0022221,-0.00836853
34,3,0,0,0,0,0,0,231.8,254,0,0,0,0,0,0,0,231.8,766,0,-0.000184593,-0.000537262,0.000630684,0.015747,-0.00195042,0.000181351,0.00144569,-1.86916e-06,-0.0144707,0.00147995,0.000735168,0.0159686,-0.0215033,0.000867882,0.000467339,-0.0075293
34,4,0,0,0,0,0,0,231.8,254,0,0,0,0,0,0,0,231.8,766,0,0.000196877,0.00102676,0.00116474,0.0160904,-0.00473515,0.00132576,0.000453873,0.000341454,-0.0422036,0.00159439,0.00111664,0.0177233,-0.0207785,0.00151638,0.000314751,-0.00768188
34,5,0,0,0,0,0,0,231.8,254,0,0,0,0,0,0,0,231.8,766,0,0.000349465,-0.000155793,0.00101215,0.0171203,-0.00343815,0.00121132,0.000911636,0.00076107,0.050875,-0.000732575,0.000353699,0.0165789,-0.0205496,0.000867882,0.00115398,-0.0068808
34,6,0,0,0,0,0,0,231.8,254,0,0,0,0,0,0,0,231.8,766,0,0.00115055,0.00137009,0.00173695,0.01651,-0.0053455,0.000867996,0.00186531,0.000722923,-0.0100838,0.00182327,0.00237549,0.0164264,-0.0215796,0.00140194,0.00218395,-0.00844482
34,7,0,0,0,0,0,0,231.8,254,0,0,0,0,0,0,0,231.8,766,0,0.000883522,0.000836029,0.000287361,0.016777,-0.00675694,0.00121132,0.00098793,0.000646629,-0.0320565,0.000488129,0.000429993,0.0136416,-0.0210074,0.000829735,0.00145916,-0.00699524
34,8,0,0,0,0,0,0,231.8,254,0,0,0,0,0,0,0,231.8,766,0,0.000883522,0.000492706,0.000745125,0.0171203,-0.00652805,0.0014402,0.00182716,0.000722923,0.0689567,0.00125107,0.0016507,0.0157016,-0.0201682,0.00166897,0.0022221,-0.00775818
34,9,0,0,0,0,0,0,231.8,254,0,0,0,0,0,0,0,231.8,766,0,0.00122685,-3.20468e-06,0.000974007,0.0163192,-0.005994,0.000982437,0.00106422,0.000341454,0.00380165,0.000907745,0.00138367,0.0129168,-0.0206641,0.00117306,0.000848808,-0.00833038
35,0,0,0,0,0,0,0,231.8,254,0,0,0,0,0,0,0,231.8,766,0,0.000616494,0.000988617,0.000134773,0.0156707,-8.12148e-05,0.000677261,0.000186844,0.000799217,-0.0328957,0.00071701,0.000506287,0.0110858,-0.0212363,0.00136379,0.00164989,-0.00882629
35,1,0,0,0,0,0,0,231.8,254,0,0,0,0,0,0,0,231.8,766,0,0.000502053,-0.00030838,0.00146992,0.0167389,0.00567898,0.000715408,0.000797195,-4.00161e-05,0.076319,0.000335541,0.000773315,0.013222,-0.0216559,0.000639,0.000848808,-0.0093222
35,2,0,0,0,0,0,0,231.8,254,0,0,0,0,0,0,0,231.8,766,0,-0.000833091,-7.94986e-05,-0.000246697,0.0151748,0.00892147,0.000257645,0.000644607,-0.000764809,0.0102485,-4.59291e-05,0.000658874,0.0123446,-0.0215796,0.000639,0.000772514,-0.0111151
35,3,0,0,0,0,0,0,231.8,254,0,0,0,0,0,0,0,231.8,766,0,0.000921669,-0.000422821,0.000745125,0.0162811,0.00850185,0.000410232,0.00133125,0.000379601,-0.0535332,0.00106033,0.000811462,0.0178378,-0.0217322,0.000791588,0.0010014,-0.00855927
35,4,0,0,0,0,0,0,231.8,254,0,0,0,0,0,0,0,231.8,766,0,0.000120583,-0.000422821,0.000821419,0.01651,0.00556454,0.00132576,0.00186531,0.000646629,-0.00802391,0.0002211,0.000391846,0.0200885,-0.0207022,0.000944176,0.00149731,-0.00821594
35,5,0,0,0,0,0,0,231.8,254,0,0,0,0,0,0,0,231.8,766,0,0.000769082,0.00137009,9.66262e-05,0.0161666,0.00110134,0.00117317,0.00098793,0.000951805,0.0202048,0.000945892,0.000429993,0.0202411,-0.0219229,0.00155453,0.00119213,-0.0081778
35,6,0,0,0,0,0,0,231.8,254,0,0,0,0,0,0,0,231.8,766,0,0.000692788,0.000492706,0.000249214,0.0158615,0.000262108,0.000639114,0.00114052,0.000417748,0.0580085,0.000640716,0.000391846,0.0205081,-0.0222662,0.000333824,0.00103954,-0.00859741
35,7,0,0,0,0,0,0,231.8,254,0,0,0,0,0,0,0,231.8,766,0,0.000654641,0.000645294,0.00181324,0.0161666,3.32261e-05,0.00113502,0.00106422,0.00118069,-0.0386178,0.00109848,0.000811462,0.0196688,-0.0205878,0.00163082,0.000238457,-0.00848297
35,8,0,0,0,0,0,0,231.8,254,0,0,0,0,0,0,0,231.8,766,0,0.00107426,0.000492706,0.000668831,0.0164718,-0.00298038,0.00109688,0.00175087,0.000989952,0.0257362,0.000488129,0.000658874,0.015549,-0.0203589,0.00178341,0.00145916,-0.00955109
35,9,0,0,0,0,0,0,231.8,254,0,0,0,0,0,0,0,231.8,766,0,0.000807228,0.00102676,0.000821419,0.0155944,-0.0027515,0.000715408,0.000415726,0.00026516,0.0556815,0.000869598,0.00107849,0.0115435,-0.0211218,0.00117306,0.000848808,-0.0081015
36,0,0,0,0,0,0,0,231.8,254,0,0,0,0,0,0,0,231.8,766,0,-7.01519e-05,-0.000232087,0.000745125,0.0147552,-0.00561253,-0.000429001,0.000148697,0.000150719,-0.0362908,0.000335541,-0.000180359,0.0110095,-0.0221136,-0.00023838,-6.6719e-05,-0.00875
36,1,0,0,0,0,0,0,231.8,254,0,0,0,0,0,0,0,231.8,766,0,-0.000184593,-0.000766144,-1.78147e-05,0.0158233,-0.0028278,6.69097e-05,0.000415726,0.000188866,0.0293983,0.000488129,0.000124817,0.0125354,-0.0224951,0.000867882,0.00119213,-0.00878815
36,2,0,0,0,0,0,0,231.8,254,0,0,0,0,0,0,0,231.8,766,0,0.000502053,0.000416412,0.000630684,0.0161666,0.00190243,0.000524673,0.000453873,0.000570335,0.0711311,0.00136551,0.000811462,0.0153964,-0.0217703,0.00140194,0.000238457,-0.00920776
36,3,0,0,0,0,0,0,231.8,254,0,0,0,0,0,0,0,231.8,766,0,0.000196877,-0.000537262,0.000363655,0.01548,0.00297054,0.000753555,0.000148697,0.00106625,-0.0388848,-8.40761e-05,0.000620727,0.014786,-0.0224951,0.000486412,0.00138287,-0.00993256
36,4,0,0,0,0,0,0,231.8,254,0,0,0,0,0,0,0,231.8,766,0,0.000769082,0.000225677,0.00101215,0.0159378,0.00396236,0.00105873,0.00182716,0.000379601,0.0305045,0.00159439,0.000544433,0.0160449,-0.0207404,0.00201229,0.000925102,-0.00829224
36,5,0,0,0,0,0,0,231.8,254,0,0,0,0,0,0,0,231.8,766,0,0.000578347,-4.13517e-05,0.000211067,0.0160904,-0.00156895,0.000181351,0.00159828,0.00114254,0.0773872,0.000869598,-0.000256653,0.012955,-0.0223425,0.00147823,0.000886955,-0.00825409
36,6,0,0,0,0,0,0,231.8,254,0,0,0,0,0,0,0,231.8,766,0,0.00015873,-0.00019394,-0.000437431,0.0159759,-0.00683323,0.000105057,-0.000232773,0.000913658,-0.0452554,0.000182953,0.0010022,0.0143283,-0.0217703,0.000448265,8.58689e-05,-0.00882629
36,7,0,0,0,0,0,0,231.8,254,0,0,0,0,0,0,0,231.8,766,0,0.00153202,0.000340118,0.00131733,0.0159378,-0.00580326,0.000791702,0.00129311,0.000532188,-0.0228631,0.00109848,0.000124817,0.0155871,-0.0218848,0.00113491,0.00199322,-0.00798706
36,8,0,0,0,0,0,0,231.8,254,0,0,0,0,0,0,0,231.8,766,0,0.000654641,0.000378265,0.000478096,0.0158233,-0.00427738,0.000867996,3.42559e-05,0.000341454,-0.000547104,0.0002211,0.000773315,0.0169223,-0.0220374,0.000295677,0.000886955,-0.00886444
36,9,0,0,0,0,0,0,231.8,254,0,0,0,0,0,0,0,231.8,766,0,0.000578347,0.000340118,0.000668831,0.0162429,-0.00492588,0.000219498,0.00121681,0.000455895,0.0948585,0.000449982,0.00123108,0.0164645,-0.0215796,0.000944176,-0.000219307,-0.0107718
37,0,0,0,0,0,0,0,231.8,254,0,0,0,0,0,0,0,231.8,766,0,-0.00022274,-0.00103317,0.000287361,0.015213,-0.0021793,0.000410232,-0.000194626,-1.86916e-06,0.171953,-0.000236664,-0.000828858,0.016083,-0.02116,2.86484e-05,0.000886955,-0.00791077
37,1,0,0,0,0,0,0,231.8,254,0,0,0,0,0,0,0,231.8,766,0,0.000311318,0.000607147,-0.000475578,0.0161666,-0.000538978,0.000372085,0.000911636,0.00106625,0.141207,0.0002211,-0.000599976,0.0135272,-0.0224951,0.00025753,0.00123028,-0.00665192
37,2,0,0,0,0,0,0,231.8,254,0,0,0,0,0,0,0,231.8,766,0,0.00160831,0.000645294,0.000821419,0.0164337,0.00464901,0.00136391,0.00133125,0.000494041,0.0962699,0.00132736,-0.000142212,0.0128024,-0.0210837,0.00117306,-6.6719e-05,-0.00836853
37,3,0,0,0,0,0,0,231.8,254,0,0,0,0,0,0,0,231.8,766,0,0.000807228,0.000683441,0.000783272,0.0170059,0.00522121,0.00124947,0.00144569,0.00144772,-0.0607049,0.000526275,0.00107849,0.0101321,-0.0208167,0.00208858,0.00252728,-0.00852112
37,4,0,0,0,0,0,0,231.8,254,0,0,0,0,0,0,0,231.8,766,0,0.000387612,-0.000155793,0.000211067,0.0163955,0.0047253,-0.000123825,-0.00027092,0.00076107,-0.0798928,0.000526275,0.000315552,0.0113528,-0.0221899,2.86484e-05,0.0010014,-0.00726227
37,5,0,0,0,0,0,0,231.8,254,0,0,0,0,0,0,0,231.8,766,0,0.000769082,0.000378265,-0.000857048,0.0158233,0.00663265,0.000867996,-0.000309067,0.000379601,0.039202,0.000144806,0.000697021,0.0106662,-0.0219229,-4.76455e-05,0.000314751,-0.00886444
37,6,0,0,0,0,0,0,231.8,254,0,0,0,0,0,0,0,231.8,766,0,6.14207e-06,-0.00030838,-0.000284843,0.0162429,0.00674709,0.000791702,0.00098793,0.000913658,-0.0355279,0.000335541,0.000811462,0.00940731,-0.021427,0.00113491,-6.6719e-05,-0.00836853
37,7,0,0,0,0,0,0,231.8,254,0,0,0,0,0,0,0,231.8,766,0,0.000235024,-0.000117646,0.00093586,0.0166626,0.0101422,0.000906143,0.00106422,0.000150719,-0.0727975,0.00102219,0.000544433,0.00967434,-0.020397,0.00102047,0.00069622,-0.00749115
37,8,0,0,0,0,0,0,231.8,254,0,0,0,0,0,0,0,231.8,766,0,0.00137943,0.000912323,0.000211067,0.0171203,0.0112484,0.000600967,0.000644607,0.00179104,0.0484718,0.00109848,0.00130737,0.011925,-0.0206641,0.00170712,0.00145916,-0.0081778
37,9,0,0,0,0,0,0,231.8,254,0,0,0,0,0,0,0,231.8,766,0,0.000845375,-0.00068985,-0.000666313,0.0152511,0.0106762,0.000219498,-0.000499802,0.00026516,-0.0192391,0.000564422,0.000239258,0.0137942,-0.0230673,-0.000314674,-0.000143013,-0.00794891
38,0,0,0,0,0,0,0,231.8,254,0,0,0,0,0,0,0,231.8,766,0,0.0005402,0.000721588,0.000630684,0.0158615,0.00823482,0.000448379,0.000224991,0.000684776,-0.0838219,0.0002211,1.03759e-05,0.0147479,-0.0208548,0.000715294,9.57493e-06,-0.00764374
38,1,0,0,0,0,0,0,231.8,254,0,0,0,0,0,0,0,231.8,766,0,0.0005402,0.000454559,0.000363655,0.0166244,0.0114773,0.000143204,0.000720901,0.00118069,-0.0338113,0.000678863,-0.0002948,0.0161212,-0.0212744,0.000944176,0.000963249,-0.00947479
38,2,0,0,0,0,0,0,231.8,254,0,0,0,0,0,0,0,231.8,766,0,0.000997963,0.000263824,0.000401802,0.0161285,0.0130795,0.000410232,-0.000385361,0.000913658,-0.00493401,0.00132736,1.03759e-05,0.0188678,-0.021427,0.000791588,0.000238457,-0.0081778
38,3,0,0,0,0,0,0,231.8,254,0,0,0,0,0,0,0,231.8,766,0,-7.01519e-05,0.000111236,0.000859566,0.0160141,0.0158642,0.000906143,0.000224991,0.000379601,0.0350059,0.00113663,0.00145996,0.0237887,-0.0219229,0.00147823,0.0015736,-0.00905518
38,4,0,0,0,0,0,0,231.8,254,0,0,0,0,0,0,0,231.8,766,0,0.000616494,-0.00103317,9.66262e-05,0.0151367,0.0155972,2.87627e-05,0.00060646,0.000722923,-0.0592934,-0.00016037,-0.000561829,0.0176471,-0.0218085,0.000867882,-0.000486336,-0.00867371
38,5,0,0,0,0,0,0,231.8,254,0,0,0,0,0,0,0,231.8,766,0,0.000425759,0.000492706,9.66262e-05,0.0160904,0.0164746,0.000181351,0.000415726,0.000417748,0.0104011,0.000640716,-0.0002948,0.0203173,-0.0207404,6.67954e-05,0.000848808,-0.00783447
38,6,0,0,0,0,0,0,231.8,254,0,0,0,0,0,0,0,231.8,766,0,0.00115055,0.000683441,0.000287361,0.0152511,0.0128506,0.000448379,0.00117867,0.000989952,0.0404227,0.00174698,0.000315552,0.015816,-0.0223044,0.000753441,0.000734367,-0.0081778
38,7,0,0,0,0,0,0,231.8,254,0,0,0,0,0,0,0,231.8,766,0,0.0011124,-0.000117646,0.00017292,0.017044,0.0106381,0.00113502,0.00098793,0.000341454,-0.0479638,0.00159439,0.00126923,0.0133364,-0.0197867,0.00155453,0.000505486,-0.00726227
38,8,0,0,0,0,0,0,231.8,254,0,0,0,0,0,0,0,231.8,766,0,0.000845375,0.00190414,0.00120289,0.0166626,0.00831112,0.000982437,0.00133125,0.00152401,0.0221122,-0.000351105,0.000201111,0.0135272,-0.0223044,0.00102047,0.000886955,-0.00863556
38,9,0,0,0,0,0,0,231.8,254,0,0,0,0,0,0,0,231.8,766,0,-0.000184593,3.49423e-05,0.000249214,0.0159378,0.00659451,0.000600967,-0.000118332,0.00114254,0.0630058,0.000640716,0.00058258,0.0125354,-0.0212744,0.000295677,0.00130657,-0.00829224
39,0,0,0,0,0,0,0,231.8,254,0,0,0,0,0,0,0,231.8,766,0,-7.01519e-05,0.000836029,0.00131733,0.0163574,0.0054501,0.000181351,0.000339432,0.000227013,-0.0451028,0.00193771,4.85228e-05,0.0140231,-0.0210074,0.000562706,0.00142101,-0.00707153
39,1,0,0,0,0,0,0,231.8,254,0,0,0,0,0,0,0,231.8,766,0,-3.20049e-05,0.000340118,-0.000132256,0.0163574,0.0035046,0.000181351,0.000453873,-0.000383339,0.0250114,-0.000732575,-0.000561829,0.0131457,-0.0222281,0.000295677,0.000162163,-0.00878815
39,2,0,0,0,0,0,0,231.8,254,0,0,0,0,0,0,0,231.8,766,0,6.14207e-06,0.000836029,0.000134773,0.01548,0.00300869,0.000600967,0.00011055,-0.000345192,0.0739921,-0.000198517,0.000277405,0.00837734,-0.021694,0.000829735,8.58689e-05,-0.00833038
39,3,0,0,0,0,0,0,231.8,254,0,0,0,0,0,0,0,231.8,766,0,0.000578347,0.000874176,0.000821419,0.0160141,0.00453457,0.000715408,0.00125496,0.00133327,-0.047239,0.00106033,-0.0002948,0.0076907,-0.0215414,0.000600853,0.00164989,-0.00791077
39,4,0,0,0,0,0,0,231.8,254,0,0,0,0,0,0,0,231.8,766,0,0.00122685,0.00095047,0.00055439,0.0163192,0.00354275,0.00056282,0.000530167,0.00110439,-0.0234734,0.000869598,0.000315552,0.0105899,-0.0212744,0.000677147,0.00184063,-0.00875
39,5,0,0,0,0,0,0,231.8,254,0,0,0,0,0,0,0,231.8,766,0,0.00103611,0.000225677,0.000211067,0.0169296,0.00388607,0.000867996,0.00102608,0.000303307,-0.00321739,0.000984039,0.000239258,0.0157016,-0.0203589,0.00113491,0.000734367,-0.00718597
39,6,0,0,0,0,0,0,231.8,254,0,0,0,0,0,0,0,231.8,766,0,0.0011124,0.000988617,0.000401802,0.0168151,0.00510677,0.000906143,0.000186844,0.000837364,0.05633,0.000297394,0.00058258,0.0135272,-0.0219992,0.000906029,0.00069622,-0.0103903
39,7,0,0,0,0,0,0,231.8,254,0,0,0,0,0,0,0,231.8,766,0,0.000235024,0.000683441,0.000745125,0.0171585,0.00842556,0.00113502,0.000377579,0.000227013,0.007006,0.00102219,0.00107849,0.013489,-0.0192526,0.00208858,0.000314751,-0.00916962
39,8,0,0,0,0,0,0,231.8,254,0,0,0,0,0,0,0,231.8,766,0,-7.01519e-05,-0.000270233,0.000401802,0.015747,0.00739559,0.000639114,-0.000461655,0.000227013,-0.0267541,0.000297394,0.000239258,0.0165789,-0.0217703,0.000486412,0.000391045,-0.00890259
39,9,0,0,0,0,0,0,231.8,254,0,0,0,0,0,0,0,231.8,766,0,0.000845375,0.000149383,-0.000399284,0.0154037,0.00468716,0.000410232,0.000339432,0.000303307,0.0645316,0.00121292,0.000315552,0.0174182,-0.0213889,0.000791588,0.000238457,-0.00852112
40,0,0,0,0,0,0,0,231.8,254,0,0,0,0,0,0,0,231.8,766,0,0.000311318,0.00018753,9.66262e-05,0.0147934,0.00358089,-0.000352707,0.000759048,7.44248e-05,0.00589973,0.00106033,-0.00143921,0.0179522,-0.0219611,-0.000429115,0.000772514,-0.00825409
40,1,0,0,0,0,0,0,231.8,254,0,0,0,0,0,0,0,231.8,766,0,0.000387612,0.000416412,0.000516243,0.0152893,0.00564083,-0.000619736,0.000263138,0.000455895,-0.0238931,-7.78213e-06,-0.000142212,0.0143283,-0.0223044,0.000677147,0.000810661,-0.00913147
40,2,0,0,0,0,0,0,231.8,254,0,0,0,0,0,0,0,231.8,766,0,0.000196877,-4.13517e-05,0.000821419,0.016777,0.0073193,0.000219498,0.000453873,-0.00049778,0.0786079,0.00182327,0.000735168,0.0182574,-0.0202063,0.000944176,8.58689e-05,-0.00714783
40,3,0,0,0,0,0,0,231.8,254,0,0,0,0,0,0,0,231.8,766,0,-0.000680503,0.000454559,0.00108845,0.0162811,0.0106381,0.00136391,0.000263138,0.000494041,0.00998146,0.00159439,0.00130737,0.0137179,-0.0211218,0.000410118,-0.000257454,-0.00825409
40,4,0,0,0,0,0,0,231.8,254,0,0,0,0,0,0,0,231.8,766,0,0.00015873,0.000492706,-0.00070446,0.01651,0.010104,0.000753555,0.00110237,3.62778e-05,-0.0280129,0.000526275,8.66698e-05,0.0138324,-0.021427,0.0012875,-2.8572e-05,-0.00863556
40,5,0,0,0,0,0,0,231.8,254,0,0,0,0,0,0,0,231.8,766,0,0.000654641,3.49423e-05,0.00017292,0.0158996,0.0118969,0.000257645,0.000224991,0.000494041,0.0816596,0.000373688,-0.000256653,0.0137179,-0.0216559,0.000143089,0.00123028,-0.00920776
40,6,0,0,0,0,0,0,231.8,254,0,0,0,0,0,0,0,231.8,766,0,0.000807228,0.00133194,0.00017292,0.017044,0.0144528,0.00102058,0.000377579,0.000494041,0.015055,0.000564422,0.00161255,0.0165026,-0.0207404,0.000104942,0.0022221,-0.00836853
40,7,0,0,0,0,0,0,231.8,254,0,0,0,0,0,0,0,231.8,766,0,0.000883522,0.00125565,0.0010503,0.0163574,0.0144528,0.00151649,0.000682754,0.000684776,-0.0519692,0.000678863,0.00111664,0.0195544,-0.0210455,0.00102047,-0.000333748,-0.00737671
40,8,0,0,0,0,0,0,231.8,254,0,0,0,0,0,0,0,231.8,766,0,0.000196877,0.00133194,0.000668831,0.0163574,0.00968441,0.000753555,0.000720901,-0.000459633,-0.0055825,0.00147995,0.000391846,0.0187152,-0.0206641,0.00105862,0.00123028,-0.00943665
40,9,0,0,0,0,0,0,231.8,254,0,0,0,0,0,0,0,231.8,766,0,0.000921669,-4.13517e-05,0.00116474,0.0164718,0.00842556,-4.75312e-05,0.000415726,0.000646629,0.030886,-7.78213e-06,0.00111664,0.0165789,-0.0217322,0.00144009,0.000429192,-0.00802521
41,0,0,0,0,0,0,0,231.8,254,0,0,0,0,0,0,0,231.8,766,0,0.000807228,0.000797882,0.00139362,0.0166244,0.0128125,0.00117317,0.000720901,0.000227013,0.154749,0.00132736,0.00096405,0.0103228,-0.0212744,0.00109676,0.000162163,-0.00886444
41,1,0,0,0,0,0,0,231.8,254,0,0,0,0,0,0,0,231.8,766,0,-7.01519e-05,-0.000117646,-1.78147e-05,0.0152893,0.0102948,0.000410232,0.000568314,0.000379601,0.156351,0.000449982,0.000506287,0.0128024,-0.0232581,0.000639,0.00111584,-0.00886444
41,2,0,0,0,0,0,0,231.8,254,0,0,0,0,0,0,0,231.8,766,0,0.000425759,0.000874176,0.00116474,0.01651,0.00640377,0.00102058,0.000911636,0.000646629,0.12858,0.000831451,0.00126923,0.0153964,-0.0205115,0.000906029,0.0015736,-0.0099707
41,3,0,0,0,0,0,0,231.8,254,0,0,0,0,0,0,0,231.8,766,0,-7.01519e-05,0.000836029,0.00162251,0.0158615,-4.92088e-06,0.00163094,0.000301285,0.000608482,0.025698,0.00147995,0.00058258,0.016083,-0.0199011,0.000982323,0.00115398,-0.00798706
41,4,0,0,0,0,0,0,231.8,254,0,0,0,0,0,0,0,231.8,766,0,0.000502053,0.000492706,0.000363655,0.0160522,-0.00263706,0.000105057,0.00117867,-0.000230751,-0.107931,0.000335541,0.00138367,0.0157397,-0.0216177,0.00109676,0.00069622,-0.00920776
41,5,0,0,0,0,0,0,231.8,254,0,0,0,0,0,0,0,231.8,766,0,0.000196877,-0.000460968,0.000706978,0.0158996,-0.00755802,6.69097e-05,0.000186844,0.000150719,-0.0117242,0.00102219,-0.000447388,0.013222,-0.0216559,-0.00115391,0.000505486,-0.00726227
41,6,0,0,0,0,0,0,231.8,254,0,0,0,0,0,0,0,231.8,766,0,0.000387612,0.00102676,0.000516243,0.0157089,-0.00957981,0.000486526,0.00110237,-0.000383339,0.0300849,0.000793304,0.000697021,0.0125735,-0.0211981,0.0012875,0.000391045,-0.00943665
41,7,0,0,0,0,0,0,231.8,254,0,0,0,0,0,0,0,231.8,766,0,0.000997963,0.000912323,0.00143177,0.0156707,-0.0108387,0.00109688,0.000148697,0.000684776,-0.0873696,0.000793304,0.000506287,0.00852993,-0.0213889,0.000982323,0.00103954,-0.00875
41,8,0,0,0,0,0,0,231.8,254,0,0,0,0,0,0,0,231.8,766,0,-0.000909385,0.00144638,0.00101215,0.0162811,-0.00912205,0.00102058,0.000530167,-0.000459633,-0.00840538,0.00128921,0.0010022,0.012192,-0.0206641,0.000333824,0.000505486,-0.00909332
41,9,0,0,0,0,0,0,231.8,254,0,0,0,0,0,0,0,231.8,766,0,4.4289e-05,0.000301971,-0.000361137,0.0146026,-0.00671879,-0.000161972,0.000530167,0.000379601,0.0445426,3.03648e-05,0.00115479,0.0123065,-0.0217703,0.000600853,0.0010014,-0.0099707
42,0,0,0,0,0,0,0,231.8,254,0,0,0,0,0,0,0,231.8,766,0,0.000959816,0.000721588,0.000439949,0.0166626,-0.00401035,0.00140205,0.000835342,0.000684776,-0.0803506,0.000755157,-6.59181e-05,0.0120395,-0.0200537,-0.000123939,0.00153545,-0.00791077
42,1,0,0,0,0,0,0,231.8,254,0,0,0,0,0,0,0,231.8,766,0,0.00015873,-0.00030838,0.000859566,0.0160141,-0.00309483,-4.75312e-05,7.24029e-05,0.000570335,-0.0519692,0.000488129,4.85228e-05,0.0134127,-0.0220374,-0.000314674,0.000543633,-0.00878815
42,2,0,0,0,0,0,0,231.8,254,0,0,0,0,0,0,0,231.8,766,0,-0.000146446,0.00095047,0.000745125,0.0158615,-0.000310097,0.00105873,0.000911636,0.000112572,-0.0290047,0.00140366,0.000773315,0.016846,-0.0205878,0.00105862,0.00164989,-0.00890259
42,3,0,0,0,0,0,0,231.8,254,0,0,0,0,0,0,0,231.8,766,0,0.000921669,3.49423e-05,0.000478096,0.0158615,0.00640377,0.000639114,0.000530167,0.000837364,0.0338233,-7.78213e-06,0.000811462,0.0155108,-0.0212744,0.00113491,0.00111584,-0.00756744
42,4,0,0,0,0,0,0,231.8,254,0,0,0,0,0,0,0,231.8,766,0,0.0005402,0.0012175,0.000783272,0.0159759,0.00377163,0.00121132,7.24029e-05,0.000227013,-0.0158059,0.000984039,0.00145996,0.0153964,-0.0213507,0.000906029,0.000734367,-0.00962738
42,5,0,0,0,0,0,0,231.8,254,0,0,0,0,0,0,0,231.8,766,0,-7.01519e-05,0.00018753,0.00017292,0.0153656,0.00331387,0.000486526,3.42559e-05,0.000417748,-0.0443017,0.000907745,-0.000256653,0.0154345,-0.0206641,-0.000429115,4.77219e-05,-0.00905518
42,6,0,0,0,0,0,0,231.8,254,0,0,0,0,0,0,0,231.8,766,0,0.000730935,0.000721588,0.000897713,0.0162811,0.00583157,0.00117317,0.000911636,0.000494041,0.049578,0.000945892,0.00119293,0.015816,-0.0203589,0.000867882,0.00149731,-0.00928406
42,7,0,0,0,0,0,0,231.8,254,0,0,0,0,0,0,0,231.8,766,0,0.000997963,0.000454559,0.00112659,0.0169296,0.000185814,0.00102058,0.00098793,0.000341454,-0.0068795,0.000488129,0.0010022,0.0126879,-0.0204733,0.00216488,0.00214581,-0.00848297
42,8,0,0,0,0,0,0,231.8,254,0,0,0,0,0,0,0,231.8,766,0,0.000845375,0.000645294,0.00131733,0.0158233,-0.00328556,0.000639114,0.000759048,0.000913658,-0.0343835,0.00125107,0.000162964,0.011391,-0.0209692,0.000906029,0.00149731,-0.00840668
42,9,0,0,0,0,0,0,231.8,254,0,0,0,0,0,0,0,231.8,766,0,0.000463906,-7.94986e-05,0.00093586,0.0160904,-0.00748173,-0.000505295,0.00049202,-4.00161e-05,0.0686134,0.00102219,0.000315552,0.0128405,-0.0215414,2.86484e-05,0.000619926,-0.00894073
43,0,0,0,0,0,0,0,231.8,254,0,0,0,0,0,0,0,231.8,766,0,6.14207e-06,-3.20468e-06,0.00116474,0.0156707,-0.00702396,-0.000123825,0.00152199,-0.00011631,0.00303871,0.00132736,0.00104034,0.0170367,-0.0219611,-0.000390968,0.00115398,-0.00825409
43,1,0,0,0,0,0,0,231.8,254,0,0,0,0,0,0,0,231.8,766,0,-0.000184593,0.00095047,0.000630684,0.0161285,-0.00751987,0.00140205,0.000644607,0.000341454,-0.0331246,0.00106033,0.000811462,0.0176471,-0.0205496,0.000562706,0.00199322,-0.00928406
43,2,0,0,0,0,0,0,231.8,254,0,0,0,0,0,0,0,231.8,766,0,0.000616494,0.0011412,0.00124104,0.0166244,-0.00435368,0.00136391,0.000759048,0.000989952,0.0781501,0.00109848,0.0010022,0.018143,-0.0200537,0.00147823,0.000543633,-0.00844482
43,3,0,0,0,0,0,0,231.8,254,0,0,0,0,0,0,0,231.8,766,0,0.000845375,0.0012175,0.0010503,0.0163955,-0.00408665,0.000829849,-0.000194626,0.000188866,0.0113929,0.00163254,0.00046814,0.0165408,-0.0206641,0.000753441,0.000848808,-0.00909332
43,4,0,0,0,0,0,0,231.8,254,0,0,0,0,0,0,0,231.8,766,0,-0.000184593,0.000836029,0.00017292,0.0170059,-0.000386391,0.000524673,0.000568314,0.00076107,-0.0529992,3.03648e-05,0.00130737,0.0170367,-0.0210837,0.000181236,0.00176434,-0.00806335
43,5,0,0,0,0,0,0,231.8,254,0,0,0,0,0,0,0,231.8,766,0,0.00115055,0.000416412,0.000897713,0.0154419,0.00194057,0.000486526,0.00060646,0.00076107,-0.00718468,0.000640716,0.000620727,0.0124972,-0.0217322,0.00147823,0.000314751,-0.00905518
43,6,0,0,0,0,0,0,231.8,254,0,0,0,0,0,0,0,231.8,766,0,6.14207e-06,0.000721588,0.000363655,0.0160141,0.00525936,0.000677261,-0.000728684,0.000455895,0.0188697,0.00170883,0.00161255,0.0119632,-0.0210074,0.00105862,-0.000638924,-0.00955109
43,7,0,0,0,0,0,0,231.8,254,0,0,0,0,0,0,0,231.8,766,0,-0.000299034,-0.000384674,0.000821419,0.0162048,0.00903591,0.000524673,0.000148697,0.000608482,0.0565589,0.00117477,0.000697021,0.0123065,-0.0222281,0.00105862,0.00111584,-0.00821594
43,8,0,0,0,0,0,0,231.8,254,0,0,0,0,0,0,0,231.8,766,0,0.0018372,0.00129379,0.00055439,0.0164718,0.0102185,0.000982437,0.00114052,0.00076107,-0.0386941,0.00205215,0.000773315,0.0150912,-0.0207404,0.000333824,0.00126843,-0.00779633
43,9,0,0,0,0,0,0,231.8,254,0,0,0,0,0,0,0,231.8,766,0,0.000845375,0.0012175,0.00093586,0.0168914,0.00766262,0.00102058,0.00117867,0.00026516,0.0263847,0.00174698,0.000544433,0.0189441,-0.0200537,0.00140194,0.00130657,-0.00836853
44,0,0,0,0,0,0,0,231.8,254,0,0,0,0,0,0,0,231.8,766,0,0.000463906,-0.000880585,0.00116474,0.0155563,0.00930294,0.000791702,0.00133125,-0.000459633,0.0548423,0.00102219,0.000124817,0.0116961,-0.0209692,0.000639,-6.6719e-05,-0.00875
44,1,0,0,0,0,0,0,231.8,254,0,0,0,0,0,0,0,231.8,766,0,0.000578347,-0.000727997,-1.78147e-05,0.0160141,0.0100277,0.000410232,0.000568314,0.000532188,-0.0371301,-0.000312958,0.00046814,0.0094836,-0.0216559,0.000600853,0.0015736,-0.00867371
44,2,0,0,0,0,0,0,231.8,254,0,0,0,0,0,0,0,231.8,766,0,0.000502053,-0.000270233,0.000211067,0.0152511,0.0107907,-4.75312e-05,0.00102608,-0.00011631,0.0305045,-0.000465546,-0.000142212,0.0138705,-0.0229147,0.000562706,0.000619926,-0.00947479
44,3,0,0,0,0,0,0,231.8,254,0,0,0,0,0,0,0,231.8,766,0,0.000654641,0.00018753,0.000516243,0.0157089,0.0106762,0.000219498,0.000377579,0.000799217,0.0705207,0.00109848,0.000697021,0.0156253,-0.0223425,-4.76455e-05,0.000391045,-0.00897888
44,4,0,0,0,0,0,0,231.8,254,0,0,0,0,0,0,0,231.8,766,0,0.00115055,0.000797882,0.00120289,0.0171203,0.0136517,0.00128761,0.0013694,0.000227013,-0.038923,0.00163254,0.00134552,0.0178378,-0.0203207,0.000906029,0.000925102,-0.00749115
44,5,0,0,0,0,0,0,231.8,254,0,0,0,0,0,0,0,231.8,766,0,-0.000337181,-0.000155793,0.000211067,0.0158233,0.0130032,-0.000161972,0.00060646,-4.00161e-05,0.0296653,0.000602569,0.000124817,0.0120776,-0.0224188,-9.49856e-06,-2.8572e-05,-0.0105048
44,6,0,0,0,0,0,0,231.8,254,0,0,0,0,0,0,0,231.8,766,0,0.000730935,0.000530853,-0.000399284,0.0168533,0.0112866,0.00117317,0.00102608,0.000608482,0.0771583,-0.000579987,0.000658874,0.00807217,-0.0208167,0.000982323,0.00103954,-0.00844482
44,7,0,0,0,0,0,0,231.8,254,0,0,0,0,0,0,0,231.8,766,0,0.00153202,0.00018753,-5.59617e-05,0.0161285,0.0105999,0.00105873,0.00106422,0.000608482,-0.0457131,0.000945892,0.00115479,0.0095599,-0.0207022,0.0012875,0.00069622,-0.00836853
44,8,0,0,0,0,0,0,231.8,254,0,0,0,0,0,0,0,231.8,766,0,-0.000184593,-0.000117646,0.00124104,0.0161285,0.00594601,-4.75312e-05,-0.000385361,0.000227013,-0.0234734,0.000411835,0.000620727,0.0157779,-0.0210837,0.000562706,0.000772514,-0.00791077
44,9,0,0,0,0,0,0,231.8,254,0,0,0,0,0,0,0,231.8,766,0,0.000845375,0.000225677,0.000134773,0.0167007,0.00201687,0.000333939,0.000301285,-0.00011631,-0.000928573,-0.00054184,0.000735168,0.0193255,-0.0218466,0.00109676,0.00119213,-0.00794891
45,0,0,0,0,0,0,0,231.8,254,0,0,0,0,0,0,0,231.8,766,0,0.00141758,0.000454559,9.66262e-05,0.0156326,-0.00408665,0.000333939,0.000720901,-0.00011631,0.0950111,0.00140366,0.000353699,0.0161975,-0.0215033,0.000677147,-6.6719e-05,-0.00829224
45,1,0,0,0,0,0,0,231.8,254,0,0,0,0,0,0,0,231.8,766,0,-0.000680503,-0.00030838,0.000134773,0.0163192,-0.000806007,0.00140205,0.000568314,-0.000268898,0.171534,-8.40761e-05,0.000124817,0.0121539,-0.0210074,0.000333824,0.000467339,-0.00897888
45,2,0,0,0,0,0,0,231.8,254,0,0,0,0,0,0,0,231.8,766,0,-0.000756797,0.000721588,0.0010503,0.0161666,0.000452843,0.000333939,0.000339432,0.000913658,0.139529,0.00071701,0.000658874,0.00822475,-0.0219229,0.000753441,0.000963249,-0.0102377
45,3,0,0,0,0,0,0,231.8,254,0,0,0,0,0,0,0,231.8,766,0,0.00103611,0.000225677,0.000783272,0.0167007,-0.000538978,0.00174538,0.00098793,0.000837364,0.0959647,0.00132736,-0.000638123,0.00685146,-0.0202826,0.00208858,-6.6719e-05,-0.00588898
45,4,0,0,0,0,0,0,231.8,254,0,0,0,0,0,0,0,231.8,766,0,0.000769082,0.000225677,0.000439949,0.0164718,0.00148281,0.000715408,0.0019416,0.000913658,-0.0626885,0.000564422,0.000849609,0.0110095,-0.0202063,0.00163082,0.00164989,-0.00833038
45,5,0,0,0,0,0,0,231.8,254,0,0,0,0,0,0,0,231.8,766,0,0.000425759,0.00117935,0.000897713,0.0171585,0.00232204,0.00117317,0.00152199,0.00125698,-0.0799691,0.000640716,0.0010022,0.0156634,-0.0212744,0.00136379,0.00119213,-0.0093985
45,6,0,0,0,0,0,0,231.8,254,0,0,0,0,0,0,0,231.8,766,0,-0.000337181,0.000492706,0.000821419,0.01651,0.00258907,0.000524673,0.00049202,-0.000535927,0.0401176,0.000526275,0.000353699,0.019707,-0.0211981,0.00105862,0.000772514,-0.00836853
45,7,0,0,0,0,0,0,231.8,254,0,0,0,0,0,0,0,231.8,766,0,0.000502053,0.000263824,0.000325508,0.0164337,0.00483974,0.000333939,0.000224991,7.44248e-05,-0.0371301,0.000793304,0.000925903,0.0213855,-0.0217322,0.000524559,0.000314751,-0.00974182
45,8,0,0,0,0,0,0,231.8,254,0,0,0,0,0,0,0,231.8,766,0,0.000463906,7.30893e-05,0.000325508,0.0162429,0.00560268,0.00113502,0.000949783,0.000608482,-0.0725686,0.00132736,0.00214661,0.0230258,-0.0208548,0.0012875,0.0010014,-0.00802521
45,9,0,0,0,0,0,0,231.8,254,0,0,0,0,0,0,0,231.8,766,0,0.000387612,0.000225677,0.000516243,0.0168914,0.0047253,0.000486526,0.00102608,0.00125698,0.0477851,-7.78213e-06,0.000697021,0.0206607,-0.0208929,0.000639,0.00115398,-0.00730042
46,0,0,0,0,0,0,0,231.8,254,0,0,0,0,0,0,0,231.8,766,0,0.000769082,0.000836029,0.000668831,0.0173874,0.00483974,0.00102058,0.00117867,0.000341454,-0.0195061,0.00201401,0.00115479,0.0201648,-0.0206641,0.00136379,0.000162163,-0.00844482
46,1,0,0,0,0,0,0,231.8,254,0,0,0,0,0,0,0,231.8,766,0,6.14207e-06,-0.000804291,0.000287361,0.0160141,0.00323757,0.00124947,0.000530167,0.000150719,-0.0850808,0.000297394,-0.000790711,0.0200122,-0.021427,0.00117306,0.00164989,-0.0081778
46,2,0,0,0,0,0,0,231.8,254,0,0,0,0,0,0,0,231.8,766,0,0.000807228,0.00144638,-5.59617e-05,0.0164718,0.00133022,0.00056282,0.000682754,0.000989952,-0.0336968,0.000831451,0.000315552,0.0150149,-0.0215796,0.000715294,0.00130657,-0.00916962
46,3,0,0,0,0,0,0,231.8,254,0,0,0,0,0,0,0,231.8,766,0,-0.000260887,-3.20468e-06,0.00101215,0.0163192,0.00239834,0.000715408,0.000568314,0.000455895,-0.00508659,0.000564422,0.000391846,0.0157779,-0.0215033,0.00136379,0.00126843,-0.00905518
46,4,0,0,0,0,0,0,231.8,254,0,0,0,0,0,0,0,231.8,766,0,-0.000299034,-0.000422821,-0.000246697,0.016777,0.00720486,0.000219498,-0.000385361,0.000722923,0.0348151,0.0002211,0.000201111,0.0198596,-0.0217703,0.000104942,0.000276604,-0.0081778
46,5,0,0,0,0,0,0,231.8,254,0,0,0,0,0,0,0,231.8,766,0,0.00103611,0.000645294,0.00124104,0.0171585,0.0106381,0.00166908,0.000415726,0.000570335,-0.0592171,0.00113663,0.00176514,0.0190585,-0.0210074,0.00155453,0.000619926,-0.0075293
46,6,0,0,0,0,0,0,231.8,254,0,0,0,0,0,0,0,231.8,766,0,0.000730935,0.000378265,0.00150806,0.0161666,0.00709042,0.00132576,0.00144569,0.00148586,0.011164,0.000526275,0.000620727,0.0155108,-0.020397,0.00132565,0.00107769,-0.00787262
46,7,0,0,0,0,0,0,231.8,254,0,0,0,0,0,0,0,231.8,766,0,0.00107426,0.000416412,0.00093586,0.0164718,0.00930294,0.00132576,0.000415726,0.00190548,0.0412238,0.000869598,0.00115479,0.0136035,-0.0212363,0.00178341,0.00256542,-0.00749115
46,8,0,0,0,0,0,0,231.8,254,0,0,0,0,0,0,0,231.8,766,0,0.000502053,0.000492706,0.00112659,0.0169296,0.0129269,0.00128761,0.000873489,0.000532188,-0.049833,0.00140366,0.0010022,0.0149386,-0.0209311,0.000944176,0.00145916,-0.00787262
46,9,0,0,0,0,0,0,231.8,254,0,0,0,0,0,0,0,231.8,766,0,0.0005402,0.00137009,0.00146992,0.0169296,0.00854,0.0014402,-8.0185e-05,0.00106625,0.0221885,0.00182327,0.000773315,0.0138324,-0.0205496,0.00132565,0.00252728,-0.00760559
47,0,0,0,0,0,0,0,231.8,254,0,0,0,0,0,0,0,231.8,766,0,0.000578347,0.0012175,-0.000246697,0.0160141,0.00663265,0.000715408,0.00121681,0.000646629,0.061785,0.00113663,0.000620727,0.0131839,-0.0205115,0.00178341,0.000772514,-0.00859741
47,1,0,0,0,0,0,0,231.8,254,0,0,0,0,0,0,0,231.8,766,0,0.000425759,0.000301971,0.00112659,0.0159759,0.00411495,0.000639114,0.000377579,0.000494041,-0.0454842,0.00071701,-0.0002948,0.0128787,-0.0216177,0.000639,0.00153545,-0.00859741
47,2,0,0,0,0,0,0,231.8,254,0,0,0,0,0,0,0,231.8,766,0,0.000769082,0.000988617,0.000668831,0.0171585,0.00499233,0.00117317,0.000644607,-0.000268898,0.0261939,0.00071701,0.00134552,0.0144427,-0.019863,0.00147823,0.000658073,-0.00875
47,3,0,0,0,0,0,0,231.8,254,0,0,0,0,0,0,0,231.8,766,0,0.000654641,-0.000499115,2.03323e-05,0.0149459,0.00464901,0.000410232,0.00106422,-1.86916e-06,0.0733436,-7.78213e-06,-6.59181e-05,0.0137561,-0.0231055,0.000791588,-0.000791511,-0.00989441
47,4,0,0,0,0,0,0,231.8,254,0,0,0,0,0,0,0,231.8,766,0,6.14207e-06,-0.000270233,-0.000246697,0.0157089,0.00354275,0.000982437,-0.000118332,0.000608482,-0.0483453,0.000144806,-0.000599976,0.013489,-0.0208929,6.67954e-05,0.00164989,-0.00852112
47,5,0,0,0,0,0,0,231.8,254,0,0,0,0,0,0,0,231.8,766,0,0.000311318,0.00102676,0.000821419,0.0167389,0.000338402,0.000219498,0.000186844,0.000722923,-0.0249612,0.000488129,0.000315552,0.0147097,-0.0215796,0.00102047,0.000963249,-0.00981812
47,6,0,0,0,0,0,0,231.8,254,0,0,0,0,0,0,0,231.8,766,0,0.000235024,0.000340118,2.03323e-05,0.0159759,-0.00114933,0.00113502,0.00011055,-1.86916e-06,-0.00333183,0.00125107,0.000201111,0.0112765,-0.0221136,0.000944176,0.00111584,-0.00825409
47,7,0,0,0,0,0,0,231.8,254,0,0,0,0,0,0,0,231.8,766,0,0.000845375,0.000607147,0.000134773,0.0166626,0.00144466,0.000829849,0.000377579,0.000341454,0.0552238,0.00102219,0.00237549,0.0112002,-0.0211981,0.00132565,0.000925102,-0.00894073
47,8,0,0,0,0,0,0,231.8,254,0,0,0,0,0,0,0,231.8,766,0,4.4289e-05,0.000988617,0.00135548,0.01651,-4.30678e-05,0.00124947,0.000873489,0.000875511,0.00589973,0.00125107,0.000239258,0.0150531,-0.0203589,0.000867882,0.00123028,-0.00791077
47,9,0,0,0,0,0,0,231.8,254,0,0,0,0,0,0,0,231.8,766,0,0.000425759,0.00117935,-5.59617e-05,0.0168533,0.0035046,0.00109688,0.000263138,0.00133327,-0.0266015,0.000831451,-0.000561829,0.0173419,-0.0204733,0.00117306,0.00138287,-0.00909332
48,0,0,0,0,0,0,0,231.8,254,0,0,0,0,0,0,0,231.8,766,0,0.000273171,0.000416412,0.00055439,0.0159759,0.00476345,-4.75312e-05,0.00133125,0.000913658,0.0652564,3.03648e-05,-0.000142212,0.0142138,-0.0226859,0.000524559,0.00245098,-0.00722412
48,1,0,0,0,0,0,0,231.8,254,0,0,0,0,0,0,0,231.8,766,0,0.00015873,0.00018753,0.00112659,0.01548,0.00628933,0.000448379,7.24029e-05,-0.000574074,0.00357277,0.00109848,0.000391846,0.0159304,-0.0213126,0.000639,0.000543633,-0.00806335
48,2,0,0,0,0,0,0,231.8,254,0,0,0,0,0,0,0,231.8,766,0,-0.000108299,0.000378265,-0.000132256,0.0153656,0.00922665,-8.56782e-05,0.00011055,0.000417748,-0.0234734,-0.000847016,-0.000256653,0.0139849,-0.0217322,0.000410118,-0.000524483,-0.0093985
48,3,0,0,0,0,0,0,231.8,254,0,0,0,0,0,0,0,231.8,766,0,-3.20049e-05,-4.13517e-05,0.00017292,0.01651,0.00651821,0.00056282,0.000263138,0.000417748,0.0771583,-0.00016037,0.000773315,0.0133746,-0.0221899,0.000791588,0.000162163,-0.00909332
48,4,0,0,0,0,0,0,231.8,254,0,0,0,0,0,0,0,231.8,766,0,4.4289e-05,0.000454559,2.03323e-05,0.0149841,0.00869259,0.000829849,-0.000347214,0.00026516,0.0104392,0.000106659,0.00104034,0.013489,-0.0205115,0.0012112,0.00126843,-0.00791077
48,5,0,0,0,0,0,0,231.8,254,0,0,0,0,0,0,0,231.8,766,0,0.00103611,-0.000575409,0.000401802,0.0160904,0.00552639,-0.000200119,0.000453873,0.000150719,-0.0282418,0.00170883,0.000353699,0.0180667,-0.0219992,0.000333824,0.000925102,-0.00829224
48,6,0,0,0,0,0,0,231.8,254,0,0,0,0,0,0,0,231.8,766,0,0.000883522,0.000988617,0.00135548,0.0156707,0.00609859,0.00201241,0.00163643,0.00114254,0.0830711,0.00170883,0.000201111,0.0226062,-0.0190237,0.00147823,0.00107769,-0.00760559
48,7,0,0,0,0,0,0,231.8,254,0,0,0,0,0,0,0,231.8,766,0,0.000387612,3.49423e-05,0.000783272,0.0162811,0.00621304,-9.38424e-06,0.000720901,0.000455895,0.0146735,0.00113663,0.000658874,0.0208895,-0.0223425,0.000639,0.00111584,-0.00905518
48,8,0,0,0,0,0,0,231.8,254,0,0,0,0,0,0,0,231.8,766,0,0.000387612,0.000111236,-1.78147e-05,0.0165863,0.00598415,0.00113502,0.000797195,0.000417748,-0.0516259,0.00109848,0.000544433,0.0188678,-0.0200156,0.000829735,0.000619926,-0.00730042
48,9,0,0,0,0,0,0,231.8,254,0,0,0,0,0,0,0,231.8,766,0,0.000311318,0.000378265,0.000249214,0.0167389,0.00548824,0.000982437,0.000377579,0.000227013,-0.00604027,0.000144806,0.000925903,0.0220721,-0.0212744,0.000677147,0.00103954,-0.00791077
49,0,0,0,0,0,0,0,231.8,254,0,0,0,0,0,0,0,231.8,766,0,0.000692788,0.00095047,0.00017292,0.0154037,0.00388607,0.00117317,0.00125496,0.00137142,0.0300849,0.00071701,8.66698e-05,0.0200885,-0.0203207,0.00197414,0.00111584,-0.00962738
49,1,0,0,0,0,0,0,231.8,254,0,0,0,0,0,0,0,231.8,766,0,0.000616494,0.00106491,0.00017292,0.0165481,0.00464901,0.00117317,0.000530167,0.00118069,0.156618,6.85118e-05,-6.59181e-05,0.0218051,-0.0213507,0.00201229,0.000467339,-0.00737671
49,2,0,0,0,0,0,0,231.8,254,0,0,0,0,0,0,0,231.8,766,0,0.000654641,0.000149383,0.000859566,0.0166626,0.00167355,0.000600967,0.000949783,0.000455895,0.156618,0.000144806,0.00138367,0.0214618,-0.0196722,0.00113491,0.00153545,-0.00840668
49,3,0,0,0,0,0,0,231.8,254,0,0,0,0,0,0,0,231.8,766,0,0.00122685,0.00110306,0.000592537,0.0161666,0.00213131,0.00140205,0.00163643,0.000837364,0.135409,0.00167068,0.000849609,0.0120395,-0.0200156,0.00189785,0.00142101,-0.00768188
49,4,0,0,0,0,0,0,231.8,254,0,0,0,0,0,0,0,231.8,766,0,0.000921669,0.000721588,0.00143177,0.0159378,0.0040768,0.000295792,0.00098793,0.00076107,0.0237525,0.000335541,0.0010022,0.00723293,-0.0216559,-0.000162086,0.00187878,-0.00737671
49,5,0,0,0,0,0,0,231.8,254,0,0,0,0,0,0,0,231.8,766,0,0.0005402,0.000759735,0.00135548,0.0169296,0.00136837,0.000791702,0.000644607,0.000494041,-0.111898,0.00125107,0.00119293,0.00547817,-0.02013,0.000829735,0.000734367,-0.00848297
49,6,0,0,0,0,0,0,231.8,254,0,0,0,0,0,0,0,231.8,766,0,0.000387612,-0.000346527,2.03323e-05,0.0149078,-0.00362888,0.000791702,0.000644607,-0.000688515,-0.0109231,0.00147995,-0.000104065,0.00723293,-0.0215796,0.00109676,-0.000448189,-0.00821594
49,7,0,0,0,0,0,0,231.8,254,0,0,0,0,0,0,0,231.8,766,0,0.000463906,-0.000460968,-0.00104778,0.0153274,-0.00748173,-8.56782e-05,-0.000309067,0.000570335,0.0280631,-7.78213e-06,-0.00132477,0.00521114,-0.0223044,-9.49856e-06,0.000848808,-0.00821594
49,8,0,0,0,0,0,0,231.8,254,0,0,0,0,0,0,0,231.8,766,0,0.00130314,0.000340118,2.03323e-05,0.0159759,-0.00881687,0.000448379,0.000682754,0.000570335,-0.0883233,-0.000770722,-0.000218506,-0.00154087,-0.0221899,0.00159267,0.000734367,-0.00867371
49,9,0,0,0,0,0,0,231.8,254,0,0,0,0,0,0,0,231.8,766,0,0.0005402,0.0011412,0.00124104,0.0161285,-0.00557438,0.00132576,0.000644607,0.000455895,-0.00851982,0.000945892,-0.00109589,-1.4992e-05,-0.0206641,0.00124935,0.00111584,-0.00669006
50,0,0,0,0,0,0,0,231.8,254,0,0,0,0,0,0,0,231.8,766,0,0.00130314,0.00110306,0.000439949,0.0164718,-0.000729713,0.00094429,0.00117867,0.000417748,0.0449622,0.000793304,0.000506287,0.00223568,-0.0202826,0.00124935,0.00134472,-0.00848297
50,1,0,0,0,0,0,0,231.8,254,0,0,0,0,0,0,0,231.8,766,0,0.000730935,7.30893e-05,2.03323e-05,0.0162048,0.00297054,0.000372085,0.000453873,0.000303307,-0.0811898,0.000640716,-0.000523682,-0.000777931,-0.0207785,0.000600853,0.000391045,-0.00859741
50,2,0,0,0,0,0,0,231.8,254,0,0,0,0,0,0,0,231.8,766,0,0.000730935,0.000988617,0.000630684,0.0153656,0.00277981,0.00102058,0.000377579,0.000608482,-0.0529229,0.000411835,0.0010022,0.005173,-0.0212744,0.000295677,0.00111584,-0.00882629
50,3,0,0,0,0,0,0,231.8,254,0,0,0,0,0,0,0,231.8,766,0,8.2436e-05,-0.000384674,0.000783272,0.0166626,0.00266537,0.00109688,0.00125496,0.000455895,-0.0296914,0.000945892,1.03759e-05,0.0105899,-0.0210074,0.0012112,0.00069622,-0.00813965
50,4,0,0,0,0,0,0,231.8,254,0,0,0,0,0,0,0,231.8,766,0,0.000273171,0.00018753,0.000897713,0.0160522,0.00495419,0.000829849,0.000377579,7.44248e-05,0.0333656,0.00128921,-0.000447388,0.0150149,-0.0210455,0.000562706,0.000886955,-0.00905518
50,5,0,0,0,0,0,0,231.8,254,0,0,0,0,0,0,0,231.8,766,0,0.000997963,0.000378265,0.000249214,0.0157852,0.00327572,2.87627e-05,-3.89107e-06,0.000646629,-0.0151574,0.000640716,0.000887756,0.014519,-0.0205115,0.000448265,0.00161175,-0.00855927
50,6,0,0,0,0,0,0,231.8,254,0,0,0,0,0,0,0,231.8,766,0,0.000730935,3.49423e-05,0.000821419,0.0160141,0.000338402,0.000410232,0.0013694,0.00121883,-0.0440728,0.000945892,0.000391846,0.0153582,-0.021427,0.00113491,0.000276604,-0.00730042
50,7,0,0,0,0,0,0,231.8,254,0,0,0,0,0,0,0,231.8,766,0,0.000463906,0.00106491,0.000821419,0.0149078,0.00167355,0.000753555,-0.000194626,0.00076107,0.050608,-0.000847016,0.000429993,0.0206988,-0.0209311,0.000715294,0.00187878,-0.00897888
50,8,0,0,0,0,0,0,231.8,254,0,0,0,0,0,0,0,231.8,766,0,0.000769082,-0.000270233,-0.00032299,0.0152511,0.00262722,-0.00031456,0.000530167,-1.86916e-06,-0.00764244,0.000488129,0.000544433,0.0208895,-0.0211218,0.000219383,0.000619926,-0.00852112
50,9,0,0,0,0,0,0,231.8,254,0,0,0,0,0,0,0,231.8,766,0,0.000578347,-0.000727997,0.000478096,0.0138015,0.000834313,-8.56782e-05,0.00060646,0.000303307,-0.0358712,0.00071701,-0.000905151,0.0221103,-0.0215414,-0.000314674,0.000848808,-0.00787262
51,0,0,0,0,0,0,0,231.8,254,0,0,0,0,0,0,0,231.8,766,0,0.00137943,0.000874176,-9.41086e-05,0.0160522,-0.004697,0.000867996,0.00148384,0.000684776,0.0680793,0.000106659,0.00149811,0.0263446,-0.0208167,0.00159267,0.000848808,-0.00962738
51,1,0,0,0,0,0,0,231.8,254,0,0,0,0,0,0,0,231.8,766,0,0.000692788,-0.000270233,0.000592537,0.01651,-0.0052692,0.000486526,0.00121681,0.000188866,0.00330574,-0.000770722,-0.00105774,0.0368731,-0.0213507,0.000715294,0.00069622,-0.00852112
51,2,0,0,0,0,0,0,231.8,254,0,0,0,0,0,0,0,231.8,766,0,0.000349465,0.000683441,0.000363655,0.0160904,-0.00557438,0.000333939,0.000568314,0.000837364,-0.0333154,0.00071701,0.000811462,0.0403064,-0.0210837,0.000486412,0.00119213,-0.00905518
51,3,0,0,0,0,0,0,231.8,254,0,0,0,0,0,0,0,231.8,766,0,0.00172276,0.000836029,0.00093586,0.0168914,-0.00343815,0.000295792,0.000759048,7.44248e-05,0.078112,0.0015181,0.00126923,0.0247042,-0.0213507,0.000600853,0.000352898,-0.00749115
51,4,0,0,0,0,0,0,231.8,254,0,0,0,0,0,0,0,231.8,766,0,0.000921669,-3.20468e-06,-0.000132256,0.015747,-0.00160709,0.00056282,-8.0185e-05,-0.00011631,0.0116218,0.000373688,-0.00124847,0.00902584,-0.0211218,0.000486412,-0.00018116,-0.00981812
51,5,0,0,0,0,0,0,231.8,254,0,0,0,0,0,0,0,231.8,766,0,6.14207e-06,0.000301971,0.000706978,0.0160904,-0.000233803,0.000906143,-0.000156479,0.000570335,-0.0529992,0.000640716,1.03759e-05,-0.000129433,-0.0203589,0.0012112,0.00233654,-0.00840668
51,6,0,0,0,0,0,0,231.8,254,0,0,0,0,0,0,0,231.8,766,0,0.000921669,0.000836029,0.00101215,0.0163574,0.00209316,0.000982437,0.00144569,-4.00161e-05,-0.00684135,0.00147995,-2.77711e-05,0.00631741,-0.0216177,0.00117306,0.00069622,-0.00833038
51,7,0,0,0,0,0,0,231.8,254,0,0,0,0,0,0,0,231.8,766,0,0.00103611,0.000340118,0.000745125,0.0153656,0.00323757,0.00147835,0.000911636,-7.81631e-05,0.0189841,0.000373688,0.000544433,0.0156253,-0.0210837,0.00170712,0.00126843,-0.00833038
