Devices
1000
,,North - Force,,,North - Moment,,,North - CoP,,,South - Force,,,South - Moment,,,South - CoP,,,EMG - Voltage,,,,,,,,,,,,,,,,
Frame,Sub Frame,Fx,Fy,Fz,Mx,My,Mz,Cx,Cy,Cz,Fx,Fy,Fz,Mx,My,Mz,Cx,Cy,Cz,1,2,3,TA,5,Sol,7,8,VL,RF,BF,GlutMed,GlutMax,14,MedGast,16
,,N,N,N,N.mm,N.mm,N.mm,mm,mm,mm,N,N,N,N.mm,N.mm,N.mm,mm,mm,mm,V,V,V,V,V,V,V,V,V,V,V,V,V,V,V,V
1,0,0,0,0,0,0,0,231.8,254,0,0,0,0,0,0,0,231.8,766,0,0.000235024,0.0011412,0.000706978,0.0151748,0.0125073,0.000257645,3.42559e-05,0.000494041,0.018946,0.000488129,-0.000371094,0.00852993,-0.0207785,0.000333824,0.000772514,-0.00813965
1,1,0,0,0,0,0,0,231.8,254,0,0,0,0,0,0,0,231.8,766,0,0.00130314,0.00152267,0.000974007,0.0168533,0.0141095,0.000639114,0.00129311,0.0010281,-0.0614297,0.00193771,0.000315552,0.0106662,-0.0195578,0.00102047,0.0010014,-0.00890259
1,2,0,0,0,0,0,0,231.8,254,0,0,0,0,0,0,0,231.8,766,0,-0.000299034,0.000530853,0.00116474,0.0162811,0.0116681,0.000105057,0.000453873,-7.81631e-05,0.0315345,0.00147995,0.00058258,0.0116198,-0.0215033,0.000715294,8.58689e-05,-0.00844482
1,3,0,0,0,0,0,0,231.8,254,0,0,0,0,0,0,0,231.8,766,0,0.00015873,7.30893e-05,-0.000742607,0.0161285,0.0113629,0.000181351,0.000263138,0.000608482,0.024134,0.00121292,-0.000256653,0.0109713,-0.0212363,0.000410118,0.00058178,-0.00772003
1,4,0,0,0,0,0,0,231.8,254,0,0,0,0,0,0,0,231.8,766,0,-0.00022274,-0.00030838,-1.78147e-05,0.0147934,0.00854,0.000600967,-0.000194626,-0.000383339,-0.0515496,0.000373688,-0.0002948,0.0095599,-0.021694,0.000448265,-0.000257454,-0.00768188
1,5,0,0,0,0,0,0,231.8,254,0,0,0,0,0,0,0,231.8,766,0,0.000921669,0.000797882,0.000478096,0.0157089,0.00735744,0.00140205,0.000720901,0.0010281,0.0472892,0.00163254,-0.000180359,0.0115817,-0.0210837,0.0012875,0.00069622,-0.00836853
1,6,0,0,0,0,0,0,231.8,254,0,0,0,0,0,0,0,231.8,766,0,0.000616494,-0.000155793,0.000668831,0.0171585,0.00686153,0.000753555,0.0013694,0.000837364,0.0426734,0.00167068,0.000887756,0.013222,-0.0204733,0.00155453,0.00138287,-0.00768188
1,7,0,0,0,0,0,0,231.8,254,0,0,0,0,0,0,0,231.8,766,0,0.000502053,0.000645294,0.000859566,0.0162048,0.00594601,0.00109688,-4.2038e-05,3.62778e-05,-0.0501763,0.00136551,0.00046814,0.0139849,-0.0210837,0.000982323,-0.000257454,-0.00875
1,8,0,0,0,0,0,0,231.8,254,0,0,0,0,0,0,0,231.8,766,0,0.000196877,0.0011412,0.00055439,0.0165863,0.0041531,0.000486526,0.00114052,0.00121883,0.0525535,0.00106033,0.00046814,0.0136798,-0.0206259,0.00147823,0.000772514,-0.00852112
1,9,0,0,0,0,0,0,231.8,254,0,0,0,0,0,0,0,231.8,766,0,0.0005402,0.000607147,0.000745125,0.0176544,0.00262722,0.00136391,0.00117867,0.000379601,0.0531257,0.00121292,-0.000142212,0.0151294,-0.0208548,0.00117306,0.00115398,-0.00905518
2,0,0,0,0,0,0,0,231.8,254,0,0,0,0,0,0,0,231.8,766,0,0.000235024,0.000530853,0.000668831,0.0154037,-0.00114933,0.000486526,0.000339432,-0.000268898,-0.0587594,0.00117477,-0.000905151,0.0162738,-0.0215033,0.00140194,0.00111584,-0.00901703
2,1,0,0,0,0,0,0,231.8,254,0,0,0,0,0,0,0,231.8,766,0,0.000845375,0.00125565,0.000401802,0.0168151,-0.00343815,0.00105873,0.00114052,-0.000764809,-0.0153481,0.00128921,0.000544433,0.0157397,-0.0207022,0.00102047,0.00020031,-0.00909332
2,2,0,0,0,0,0,0,231.8,254,0,0,0,0,0,0,0,231.8,766,0,0.000311318,0.000836029,0.00131733,0.0161666,-0.00641361,0.000486526,0.00098793,-0.000574074,0.00345833,0.00102219,0.000391846,0.0134127,-0.0208929,0.000410118,0.000238457,-0.00836853
2,3,0,0,0,0,0,0,231.8,254,0,0,0,0,0,0,0,231.8,766,0,0.000959816,0.00125565,0.000134773,0.0163955,-0.00240818,0.00147835,0.000415726,0.000989952,0.0665153,0.000984039,-0.000218506,0.0127261,-0.0209692,0.00197414,0.00145916,-0.00890259
2,4,0,0,0,0,0,0,231.8,254,0,0,0,0,0,0,0,231.8,766,0,0.00015873,0.000225677,0.000783272,0.0164718,-0.00286594,0.000295792,0.00133125,-0.000612221,-0.019201,0.00136551,0.000277405,0.011391,-0.0217703,0.0012112,9.57493e-06,-0.00676636
2,5,0,0,0,0,0,0,231.8,254,0,0,0,0,0,0,0,231.8,766,0,-0.000833091,0.00125565,-0.000170403,0.015213,-0.00557438,0.000410232,0.000301285,-0.000764809,-0.00657433,0.000945892,0.000544433,0.012192,-0.0221899,-0.000200233,-0.000295601,-0.00905518
2,6,0,0,0,0,0,0,231.8,254,0,0,0,0,0,0,0,231.8,766,0,0.000692788,7.30893e-05,0.000706978,0.017044,-0.00744358,0.00056282,0.000911636,0.00121883,0.0698341,-0.000274811,0.00046814,0.010628,-0.0206641,0.00136379,0.00126843,-0.007453
2,7,0,0,0,0,0,0,231.8,254,0,0,0,0,0,0,0,231.8,766,0,0.000616494,0.00156082,0.00166065,0.0158996,-0.00950352,0.00094429,0.000530167,0.000913658,-0.0180184,0.00109848,0.000429993,0.0123446,-0.0206641,0.00163082,0.00134472,-0.00821594
2,8,0,0,0,0,0,0,231.8,254,0,0,0,0,0,0,0,231.8,766,0,-0.000146446,3.49423e-05,9.66262e-05,0.0163955,-0.0118686,-0.00115379,0.000263138,-7.81631e-05,-0.00317924,-8.40761e-05,-0.000523682,0.0134127,-0.0227621,-0.000581703,0.000276604,-0.00905518
2,9,0,0,0,0,0,0,231.8,254,0,0,0,0,0,0,0,231.8,766,0,0.000425759,0.000683441,0.000134773,0.0155182,-0.00984684,0.000791702,0.000873489,-0.000917397,0.0846351,0.000831451,0.000391846,0.0123065,-0.0210455,0.000982323,-0.000257454,-0.00813965
3,0,0,0,0,0,0,0,231.8,254,0,0,0,0,0,0,0,231.8,766,0,0.000235024,0.000988617,0.00124104,0.0169296,-0.00507847,0.00056282,0.000949783,0.00076107,-0.0176751,0.000602569,0.00149811,0.0140612,-0.0213126,0.000639,0.00145916,-0.00962738
3,1,0,0,0,0,0,0,231.8,254,0,0,0,0,0,0,0,231.8,766,0,0.000845375,0.000492706,0.000439949,0.0159759,-0.0059177,0.000181351,-0.000347214,-0.000345192,-0.00668877,0.000640716,0.000162964,0.0149768,-0.0207785,0.00109676,-0.00117298,-0.00791077
3,2,0,0,0,0,0,0,231.8,254,0,0,0,0,0,0,0,231.8,766,0,0.00015873,0.000683441,0.00055439,0.0163192,-0.00874058,0.00117317,0.00140755,0.000646629,0.0903571,0.0015181,-0.0002948,0.0125354,-0.0216177,0.00147823,0.00142101,-0.00783447
3,3,0,0,0,0,0,0,231.8,254,0,0,0,0,0,0,0,231.8,766,0,0.0011124,0.000149383,0.000287361,0.0162811,-0.00889317,0.000295792,0.000224991,0.000417748,-0.0166451,0.00147995,0.00111664,0.0153582,-0.0217322,0.00124935,0.000314751,-0.00859741
3,4,0,0,0,0,0,0,231.8,254,0,0,0,0,0,0,0,231.8,766,0,0.000349465,0.000721588,0.000478096,0.0158233,-0.0059177,0.000257645,0.000530167,0.000455895,-0.0421273,0.00121292,0.00046814,0.0169223,-0.021427,0.0018597,0.00058178,-0.00897888
3,5,0,0,0,0,0,0,231.8,254,0,0,0,0,0,0,0,231.8,766,0,0.000769082,0.000454559,0.000745125,0.0167389,-0.004697,0.000257645,-4.2038e-05,0.00110439,-0.00520103,0.000869598,0.00119293,0.0176471,-0.0212363,0.000906029,-2.8572e-05,-0.00890259
3,6,0,0,0,0,0,0,231.8,254,0,0,0,0,0,0,0,231.8,766,0,-0.000108299,0.000530853,0.000974007,0.0168533,-0.00175968,0.00113502,0.000530167,-0.00122257,0.0560249,0.00163254,0.000620727,0.0173419,-0.0211981,0.00163082,0.000886955,-0.0101996
3,7,0,0,0,0,0,0,231.8,254,0,0,0,0,0,0,0,231.8,766,0,0.0005402,0.0011412,-0.000246697,0.0168151,0.00110134,0.000791702,0.000797195,0.00026516,0.172755,0.000945892,0.000277405,0.017113,-0.0208548,0.00124935,0.000352898,-0.00894073
3,8,0,0,0,0,0,0,231.8,254,0,0,0,0,0,0,0,231.8,766,0,0.000883522,0.000301971,-0.000361137,0.0159378,0.00159725,0.00102058,0.00144569,0.00114254,0.151926,0.000449982,0.00046814,0.0172274,-0.0208167,0.00159267,0.00134472,-0.00913147
3,9,0,0,0,0,0,0,231.8,254,0,0,0,0,0,0,0,231.8,766,0,0.000349465,0.00133194,0.002271,0.0163955,0.0016354,0.00132576,0.00098793,0.0016766,0.121561,0.00113663,0.00111664,0.0197451,-0.0202826,0.00144009,0.0015736,-0.00813965
4,0,0,0,0,0,0,0,231.8,254,0,0,0,0,0,0,0,231.8,766,0,4.4289e-05,0.00018753,0.000211067,0.0158233,0.00457272,0.000600967,0.00144569,0.000112572,-0.0139748,0.000678863,0.00046814,0.0120776,-0.0220755,0.000448265,0.000467339,-0.00974182
4,1,0,0,0,0,0,0,231.8,254,0,0,0,0,0,0,0,231.8,766,0,0.000387612,-0.000804291,0.000401802,0.0162429,0.00487789,-0.000238266,0.000453873,-0.000230751,-0.10774,3.03648e-05,0.00119293,0.0050967,-0.0218085,0.00117306,-0.000257454,-0.00977997
4,2,0,0,0,0,0,0,231.8,254,0,0,0,0,0,0,0,231.8,766,0,0.000959816,0.000683441,0.000706978,0.0170059,0.00457272,0.00124947,0.00121681,0.000989952,0.0151694,0.000945892,0.00115479,0.0147097,-0.0208167,0.00189785,0.00130657,-0.00840668
4,3,0,0,0,0,0,0,231.8,254,0,0,0,0,0,0,0,231.8,766,0,-0.000489769,-0.000232087,-9.41086e-05,0.016777,0.0097607,0.000600967,0.000263138,3.62778e-05,0.00567085,0.000984039,-0.000256653,0.0127642,-0.021427,0.00124935,0.000886955,-0.00871185
4,4,0,0,0,0,0,0,231.8,254,0,0,0,0,0,0,0,231.8,766,0,0.0005402,0.000225677,0.000287361,0.0156326,0.0104092,0.000867996,0.00121681,7.44248e-05,-0.0934731,0.00109848,0.000391846,0.0132602,-0.0218848,0.000639,0.00191692,-0.00791077
4,5,0,0,0,0,0,0,231.8,254,0,0,0,0,0,0,0,231.8,766,0,0.000387612,0.000874176,0.000478096,0.0160904,0.0073193,-0.000390854,0.00148384,0.00076107,0.0206626,0.000335541,0.000887756,0.014252,-0.0212744,0.000219383,0.000925102,-0.00821594
4,6,0,0,0,0,0,0,231.8,254,0,0,0,0,0,0,0,231.8,766,0,0.00153202,0.00102676,0.000439949,0.0168151,0.00785336,0.00056282,0.00148384,0.000989952,0.0224937,0.00102219,0.000658874,0.0169223,-0.0215796,0.000944176,0.00145916,-0.00928406
4,7,0,0,0,0,0,0,231.8,254,0,0,0,0,0,0,0,231.8,766,0,0.000921669,0.000607147,0.0010503,0.0172348,0.00766262,0.000753555,0.000911636,0.000112572,-0.0919854,0.00167068,0.00111664,0.0205844,-0.02013,0.000524559,-0.000371895,-0.00779633
4,8,0,0,0,0,0,0,231.8,254,0,0,0,0,0,0,0,231.8,766,0,0.000311318,0.000912323,0.000974007,0.0162811,0.00987514,0.000333939,0.00049202,-0.000268898,-0.0427758,3.03648e-05,1.03759e-05,0.0159304,-0.0227621,0.000371971,0.000162163,-0.00905518
4,9,0,0,0,0,0,0,231.8,254,0,0,0,0,0,0,0,231.8,766,0,0.00179905,0.00102676,0.000249214,0.0162811,0.0116299,0.000372085,-3.89107e-06,0.000913658,-0.0228631,0.000488129,0.000811462,0.0161593,-0.0212744,0.000486412,8.58689e-05,-0.00909332
5,0,0,0,0,0,0,0,231.8,254,0,0,0,0,0,0,0,231.8,766,0,-0.000413475,0.000797882,0.000630684,0.0161285,0.00682339,0.00109688,0.000911636,-1.86916e-06,0.0433982,0.000411835,-2.77711e-05,0.015816,-0.0206641,0.000410118,0.000848808,-0.00901703
5,1,0,0,0,0,0,0,231.8,254,0,0,0,0,0,0,0,231.8,766,0,0.00015873,0.000149383,-0.000399284,0.0163955,0.00705227,0.000791702,0.000797195,0.000913658,-0.0408685,0.000488129,0.000429993,0.0172274,-0.0216177,0.00144009,0.00123028,-0.00875
5,2,0,0,0,0,0,0,231.8,254,0,0,0,0,0,0,0,231.8,766,0,0.00168461,0.00095047,0.000706978,0.0163955,0.00751003,0.000791702,0.00182716,0.000837364,-0.0231301,0.00071701,4.85228e-05,0.0140231,-0.0208929,0.000753441,0.00153545,-0.00882629
5,3,0,0,0,0,0,0,231.8,254,0,0,0,0,0,0,0,231.8,766,0,0.000273171,0.000340118,0.000134773,0.0158615,0.0117825,-0.000352707,-0.000881271,-0.000383339,0.0549949,0.000602569,1.03759e-05,0.0137561,-0.0223807,0.000371971,4.77219e-05,-0.0081778
5,4,0,0,0,0,0,0,231.8,254,0,0,0,0,0,0,0,231.8,766,0,-0.000260887,7.30893e-05,0.000516243,0.0163192,0.0136517,0.000829849,0.000873489,0.000341454,-0.0308739,0.0014418,0.000391846,0.0144427,-0.0213507,0.000562706,0.00103954,-0.00871185
5,5,0,0,0,0,0,0,231.8,254,0,0,0,0,0,0,0,231.8,766,0,0.000997963,0.00140823,0.00196583,0.0161666,0.0153302,0.00185982,0.00171272,0.000227013,-0.0150048,0.00155624,0.0010022,0.0122683,-0.0199774,0.000982323,0.00191692,-0.00794891
5,6,0,0,0,0,0,0,231.8,254,0,0,0,0,0,0,0,231.8,766,0,0.00130314,0.000111236,0.000134773,0.0160522,0.0130032,6.69097e-05,0.00060646,0.000341454,0.0757468,-0.000274811,0.000620727,0.014786,-0.0208929,0.00105862,0.00214581,-0.0101614
5,7,0,0,0,0,0,0,231.8,254,0,0,0,0,0,0,0,231.8,766,0,0.000311318,-7.94986e-05,0.00112659,0.015747,0.0117062,0.000982437,0.000911636,7.44248e-05,-0.0238168,0.00102219,0.00119293,0.0123828,-0.0206641,0.000791588,0.00069622,-0.00791077
5,8,0,0,0,0,0,0,231.8,254,0,0,0,0,0,0,0,231.8,766,0,0.00103611,0.000759735,0.00112659,0.0164337,0.0119732,0.000639114,0.00114052,0.000684776,-0.0110757,0.000335541,0.000429993,0.0163882,-0.0223044,0.000906029,0.00199322,-0.0075293
5,9,0,0,0,0,0,0,231.8,254,0,0,0,0,0,0,0,231.8,766,0,0.000997963,0.00106491,-0.000132256,0.0159378,0.00838741,0.000906143,-4.2038e-05,0.000684776,0.0861991,0.000526275,-0.000104065,0.019974,-0.0221136,0.000524559,0.000543633,-0.00878815
6,0,0,0,0,0,0,0,231.8,254,0,0,0,0,0,0,0,231.8,766,0,0.000311318,0.000111236,-0.00032299,0.0155944,0.00583157,0.000219498,0.00049202,-0.000307045,-0.0190102,-4.59291e-05,0.000697021,0.0204318,-0.0210074,0.000677147,0.000391045,-0.0093985
6,1,0,0,0,0,0,0,231.8,254,0,0,0,0,0,0,0,231.8,766,0,0.00103611,0.000225677,0.000706978,0.0164718,0.00625118,-8.56782e-05,0.00133125,0.000532188,-0.0438821,0.00071701,0.000811462,0.0175708,-0.0212363,0.00105862,0.000467339,-0.00905518
6,2,0,0,0,0,0,0,231.8,254,0,0,0,0,0,0,0,231.8,766,0,0.000692788,0.000492706,2.03323e-05,0.0167389,0.00907406,0.000867996,0.000759048,-1.86916e-06,-0.00668877,0.000526275,0.000849609,0.0182574,-0.0213889,0.000639,0.00107769,-0.00890259
6,3,0,0,0,0,0,0,231.8,254,0,0,0,0,0,0,0,231.8,766,0,0.000502053,0.000797882,0.000974007,0.0155563,0.00869259,0.000600967,0.000377579,0.000379601,0.0339759,-8.40761e-05,-0.000104065,0.0211566,-0.0219611,0.000906029,0.000352898,-0.00897888
6,4,0,0,0,0,0,0,231.8,254,0,0,0,0,0,0,0,231.8,766,0,0.000425759,0.000149383,0.00017292,0.017044,0.00907406,-9.38424e-06,0.000453873,-0.000345192,0.0401176,3.03648e-05,0.000277405,0.0187915,-0.0200919,0.000753441,9.57493e-06,-0.00901703
6,5,0,0,0,0,0,0,231.8,254,0,0,0,0,0,0,0,231.8,766,0,0.000959816,0.000759735,0.000821419,0.0160141,0.00876888,-0.000429001,0.000644607,0.000646629,-0.0436913,0.000488129,0.000162964,0.0197833,-0.0215033,0.000829735,0.00126843,-0.00787262
6,6,0,0,0,0,0,0,231.8,254,0,0,0,0,0,0,0,231.8,766,0,0.0011887,0.00140823,0.000211067,0.0173874,0.00712856,0.00178352,0.00114052,0.00133327,0.0470985,0.000373688,0.000162964,0.0184863,-0.0202063,0.000982323,0.00142101,-0.00840668
6,7,0,0,0,0,0,0,231.8,254,0,0,0,0,0,0,0,231.8,766,0,0.000349465,0.00110306,0.00143177,0.0169677,0.00518307,0.00102058,0.000949783,-0.000917397,0.0383247,0.000984039,0.000849609,0.0129168,-0.0205496,0.00124935,0.00020031,-0.00909332
6,8,0,0,0,0,0,0,231.8,254,0,0,0,0,0,0,0,231.8,766,0,-0.000184593,0.00018753,0.000211067,0.0152511,0.00277981,0.000257645,-0.000347214,0.000341454,-0.0398003,0.000335541,0.000201111,0.0126117,-0.0217703,0.000639,0.000391045,-0.00913147
6,9,0,0,0,0,0,0,231.8,254,0,0,0,0,0,0,0,231.8,766,0,0.00198978,-4.13517e-05,5.84793e-05,0.01651,0.00312313,0.000448379,0.00140755,0.000989952,0.0561393,0.000793304,0.00199402,0.0115054,-0.0206641,0.00132565,0.00126843,-0.00718597
7,0,0,0,0,0,0,0,231.8,254,0,0,0,0,0,0,0,231.8,766,0,0.000692788,0.00156082,0.00177509,0.0162811,0.00411495,0.00159279,0.000759048,-0.000459633,0.0507987,0.000945892,0.000849609,0.0123828,-0.0205115,0.00113491,0.00218395,-0.0093222
7,1,0,0,0,0,0,0,231.8,254,0,0,0,0,0,0,0,231.8,766,0,0.00122685,0.000721588,0.000974007,0.0164718,0.00201687,0.000715408,0.00144569,0.00133327,-0.0450265,0.000602569,0.000735168,0.010628,-0.0204352,0.000448265,0.00119213,-0.00859741
7,2,0,0,0,0,0,0,231.8,254,0,0,0,0,0,0,0,231.8,766,0,8.2436e-05,0.000721588,0.000287361,0.016777,0.00152096,0.00056282,0.000873489,-4.00161e-05,0.0582374,0.00113663,-0.000180359,0.0112384,-0.0214651,0.000791588,0.00119213,-0.00821594
7,3,0,0,0,0,0,0,231.8,254,0,0,0,0,0,0,0,231.8,766,0,0.000845375,0.000530853,0.000211067,0.0164718,0.00216946,0.00117317,0.000720901,0.00114254,0.0564063,0.000106659,-0.000218506,0.00990322,-0.0215796,0.000333824,0.00069622,-0.0103522
7,4,0,0,0,0,0,0,231.8,254,0,0,0,0,0,0,0,231.8,766,0,0.000463906,0.000111236,5.84793e-05,0.0155182,-0.00027195,0.000829849,0.000911636,-0.000612221,-0.0575387,0.000831451,0.000162964,0.011391,-0.0208548,-0.000505409,0.000467339,-0.00878815
7,5,0,0,0,0,0,0,231.8,254,0,0,0,0,0,0,0,231.8,766,0,0.00115055,0.000378265,0.000974007,0.0155944,-0.000157509,0.000867996,0.000568314,0.000684776,-0.0137078,0.000373688,0.000429993,0.0107425,-0.021694,0.00102047,0.000238457,-0.00943665
7,6,0,0,0,0,0,0,231.8,254,0,0,0,0,0,0,0,231.8,766,0,0.000387612,0.000988617,0.000325508,0.0162429,-0.000424538,0.000257645,0.000873489,0.000608482,0.00773079,0.00147995,0.00130737,0.00997951,-0.0208929,-0.000314674,0.00161175,-0.00821594
7,7,0,0,0,0,0,0,231.8,254,0,0,0,0,0,0,0,231.8,766,0,0.00130314,0.00152267,0.00177509,0.0165481,0.000185814,0.000791702,0.000911636,-0.000688515,0.128886,0.00125107,0.00123108,0.0121157,-0.0216559,0.000982323,0.000429192,-0.00756744
7,8,0,0,0,0,0,0,231.8,254,0,0,0,0,0,0,0,231.8,766,0,0.000692788,0.000836029,0.000592537,0.0163192,0.00121578,0.000829849,0.00133125,3.62778e-05,0.171686,-0.000351105,0.00115479,0.0124591,-0.0202063,0.000715294,0.000162163,-0.0093222
7,9,0,0,0,0,0,0,231.8,254,0,0,0,0,0,0,0,231.8,766,0,0.000311318,0.000378265,0.000211067,0.0154037,0.00102505,0.000486526,0.000263138,0.000494041,0.147578,-0.000198517,-0.000828858,0.0124209,-0.0212363,0.000333824,0.000543633,-0.00833038
8,0,0,0,0,0,0,0,231.8,254,0,0,0,0,0,0,0,231.8,766,0,0.00126499,0.000836029,0.000630684,0.0159378,0.00110134,0.00102058,0.000263138,0.000532188,0.103823,3.03648e-05,-0.000752564,0.0118487,-0.0210455,2.86484e-05,0.000352898,-0.00760559
8,1,0,0,0,0,0,0,231.8,254,0,0,0,0,0,0,0,231.8,766,0,0.000807228,0.000988617,0.00166065,0.017044,0.00144466,0.00136391,0.000644607,0.000227013,-0.0957619,0.00102219,0.00195587,0.0137942,-0.0204352,0.000982323,0.00199322,-0.00924591
8,2,0,0,0,0,0,0,231.8,254,0,0,0,0,0,0,0,231.8,766,0,0.000502053,0.000988617,0.000783272,0.0152893,0.0040768,6.69097e-05,0.00049202,0.000684776,-0.05216,-0.000885163,-0.000981445,0.0108187,-0.0218848,0.000143089,-0.000333748,-0.00775818
8,3,0,0,0,0,0,0,231.8,254,0,0,0,0,0,0,0,231.8,766,0,0.000349465,7.30893e-05,0.000897713,0.01548,0.00323757,-0.000352707,0.000148697,0.000989952,0.0861228,-0.00054184,0.000201111,0.0153582,-0.0215033,0.000600853,0.00138287,-0.00836853
8,4,0,0,0,0,0,0,231.8,254,0,0,0,0,0,0,0,231.8,766,0,0.0005402,0.000912323,-0.000399284,0.0161285,0.00491604,0.000181351,0.000797195,0.000455895,-0.0743615,0.00102219,-0.000485535,0.0134127,-0.0213889,0.0012875,0.000734367,-0.00886444
8,5,0,0,0,0,0,0,231.8,254,0,0,0,0,0,0,0,231.8,766,0,0.000616494,0.000645294,0.00017292,0.0159759,-0.00160709,0.000677261,0.000911636,0.000379601,-0.0503289,0.000106659,-0.000332947,0.0132983,-0.0215414,0.000906029,0.000391045,-0.00897888
8,6,0,0,0,0,0,0,231.8,254,0,0,0,0,0,0,0,231.8,766,0,0.000921669,0.000912323,0.00112659,0.0166626,-0.000233803,0.000524673,0.000949783,0.000532188,0.0927604,0.000640716,0.000658874,0.0132602,-0.0205115,0.000791588,0.000543633,-0.00772003
8,7,0,0,0,0,0,0,231.8,254,0,0,0,0,0,0,0,231.8,766,0,0.000883522,0.000149383,0.00108845,0.0168533,0.0009869,0.000524673,0.000186844,-0.00011631,-0.0627267,0.00197586,0.00130737,0.0133746,-0.0212744,0.00136379,0.000391045,-0.00890259
8,8,0,0,0,0,0,0,231.8,254,0,0,0,0,0,0,0,231.8,766,0,8.2436e-05,0.000797882,0.000821419,0.0164337,0.000262108,0.000295792,7.24029e-05,0.000608482,-0.094999,0.000602569,0.000544433,0.0152056,-0.0217322,0.000448265,0.0015736,-0.00844482
8,9,0,0,0,0,0,0,231.8,254,0,0,0,0,0,0,0,231.8,766,0,0.000387612,0.0011412,0.000439949,0.0159378,0.00182613,0.000791702,0.000911636,0.00026516,-0.0372063,0.000488129,4.85228e-05,0.0136798,-0.0208548,0.000677147,0.000810661,-0.00821594
9,0,0,0,0,0,0,0,231.8,254,0,0,0,0,0,0,0,231.8,766,0,0.000845375,-0.000499115,0.000974007,0.0165863,0.00354275,0.000639114,0.000835342,0.000227013,0.0320686,-4.59291e-05,4.85228e-05,0.0142901,-0.0209311,0.00109676,0.000429192,-0.00821594
9,1,0,0,0,0,0,0,231.8,254,0,0,0,0,0,0,0,231.8,766,0,0.00126499,0.0012175,0.000478096,0.0162048,0.00304684,0.000448379,-0.000156479,0.000532188,0.0348151,0.000602569,0.000353699,0.0145953,-0.0213507,0.00117306,0.0010014,-0.00916962
9,2,0,0,0,0,0,0,231.8,254,0,0,0,0,0,0,0,231.8,766,0,0.000616494,7.30893e-05,0.000821419,0.0156707,0.00289425,0.000677261,0.00060646,0.000684776,-0.0911843,0.00113663,0.00096405,0.0153964,-0.0216559,0.000829735,0.00176434,-0.00821594
9,3,0,0,0,0,0,0,231.8,254,0,0,0,0,0,0,0,231.8,766,0,0.000997963,0.00148453,0.00093586,0.0165863,0.00548824,0.00151649,0.00121681,0.000837364,0.057627,0.000831451,-0.00067627,0.0154727,-0.02013,0.000371971,0.00111584,-0.00756744
9,4,0,0,0,0,0,0,231.8,254,0,0,0,0,0,0,0,231.8,766,0,-0.000527916,-0.00019394,-0.000551872,0.0155944,0.00327572,-0.000200119,7.24029e-05,0.000227013,0.0318778,6.85118e-05,-0.000142212,0.0161212,-0.0224188,0.000333824,-0.000219307,-0.00829224
9,5,0,0,0,0,0,0,231.8,254,0,0,0,0,0,0,0,231.8,766,0,0.00157017,0.000263824,0.000897713,0.0172729,0.00388607,0.00178352,-3.89107e-06,0.000799217,-0.080198,0.00147995,-0.000371094,0.0158541,-0.0208929,0.00140194,0.00069622,-0.00821594
9,6,0,0,0,0,0,0,231.8,254,0,0,0,0,0,0,0,231.8,766,0,0.000616494,0.000416412,0.00154621,0.0167389,0.00705227,0.00170723,0.00110237,0.00140957,0.0676597,-0.00016037,0.000277405,0.0184863,-0.0209311,0.00124935,0.00145916,-0.00707153
9,7,0,0,0,0,0,0,231.8,254,0,0,0,0,0,0,0,231.8,766,0,0.000654641,0.000416412,0.000516243,0.0160904,0.00686153,-9.38424e-06,0.000377579,0.000150719,0.0544227,0.000564422,-0.000828858,0.0173037,-0.0215796,-0.000162086,9.57493e-06,-0.00878815
9,8,0,0,0,0,0,0,231.8,254,0,0,0,0,0,0,0,231.8,766,0,0.000692788,0.000836029,0.000745125,0.0158996,0.00445827,0.000257645,0.00049202,-0.000230751,-0.0778329,0.00170883,4.85228e-05,0.0160067,-0.0213126,0.000524559,0.00069622,-0.00905518
9,9,0,0,0,0,0,0,231.8,254,0,0,0,0,0,0,0,231.8,766,0,0.000502053,-0.000880585,-0.00020855,0.0161285,0.000758019,0.000219498,0.000415726,0.000570335,0.0723518,-0.000694428,-2.77711e-05,0.0163119,-0.0220374,0.000677147,0.00199322,-0.00813965
10,0,0,0,0,0,0,0,231.8,254,0,0,0,0,0,0,0,231.8,766,0,0.000692788,0.000340118,0.00158436,0.0165863,0.00274166,0.00163094,0.0013694,0.000341454,0.0675452,0.00102219,0.00149811,0.0157397,-0.02013,0.000867882,0.000352898,-0.00672821
10,1,0,0,0,0,0,0,231.8,254,0,0,0,0,0,0,0,231.8,766,0,-0.000756797,0.00117935,0.000516243,0.0158233,7.13731e-05,0.00056282,0.000720901,-0.000268898,-0.0922143,0.000373688,0.000773315,0.0141375,-0.0218848,0.000677147,0.000276604,-0.00985626
10,2,0,0,0,0,0,0,231.8,254,0,0,0,0,0,0,0,231.8,766,0,0.000273171,-0.000384674,0.000821419,0.0161666,-0.00313297,-0.000123825,0.000415726,0.00026516,-0.0286233,0.00125107,0.000124817,0.014786,-0.0202063,0.000562706,0.00058178,-0.00802521
10,3,0,0,0,0,0,0,231.8,254,0,0,0,0,0,0,0,231.8,766,0,0.000463906,0.00095047,0.000249214,0.0168914,-0.000729713,0.000715408,0.000911636,-0.000383339,0.000978775,0.000106659,-0.000104065,0.0155108,-0.0211218,0.00109676,0.000925102,-0.00867371
10,4,0,0,0,0,0,0,231.8,254,0,0,0,0,0,0,0,231.8,766,0,6.14207e-06,-0.000842438,-0.000246697,0.0156707,0.00113949,0.000181351,0.000339432,7.44248e-05,0.0941337,-4.59291e-05,0.00134552,0.0148242,-0.0220374,0.00025753,0.000124016,-0.0081778
10,5,0,0,0,0,0,0,231.8,254,0,0,0,0,0,0,0,231.8,766,0,0.000578347,0.000836029,0.00116474,0.0161666,0.00270351,0.00132576,0.00144569,0.000799217,-0.0390755,0.00121292,0.000887756,0.0168078,-0.018833,0.00166897,0.0010014,-0.00737671
10,6,0,0,0,0,0,0,231.8,254,0,0,0,0,0,0,0,231.8,766,0,0.000311318,0.000607147,0.00139362,0.0161666,0.00419125,0.000219498,0.000911636,0.000227013,-0.0121056,0.000869598,1.03759e-05,0.0156634,-0.0221518,0.000562706,-0.000600777,-0.0081778
10,7,0,0,0,0,0,0,231.8,254,0,0,0,0,0,0,0,231.8,766,0,0.000845375,3.49423e-05,0.000478096,0.0165863,0.00216946,2.87627e-05,-3.89107e-06,-0.00011631,0.101649,0.00132736,0.00046814,0.0165408,-0.0212744,0.000906029,0.000352898,-0.00974182
10,8,0,0,0,0,0,0,231.8,254,0,0,0,0,0,0,0,231.8,766,0,0.000769082,0.0012175,0.000897713,0.0170059,0.0029324,0.00136391,0.00144569,0.00133327,-0.0362908,-0.00016037,0.00130737,0.0171511,-0.02116,0.00144009,0.00138287,-0.00836853
10,9,0,0,0,0,0,0,231.8,254,0,0,0,0,0,0,0,231.8,766,0,0.000196877,0.000988617,0.000211067,0.0150985,0.00266537,0.000829849,0.000301285,0.000684776,-0.012983,0.000144806,-0.00162994,0.0159304,-0.0215796,0.000371971,-2.8572e-05,-0.00848297
11,0,0,0,0,0,0,0,231.8,254,0,0,0,0,0,0,0,231.8,766,0,-0.000451622,0.000492706,0.00124104,0.0161285,0.00205502,0.000715408,0.00133125,0.000227013,0.117213,0.00163254,0.00130737,0.0131076,-0.0200537,0.00151638,0.000162163,-0.00718597
11,1,0,0,0,0,0,0,231.8,254,0,0,0,0,0,0,0,231.8,766,0,0.0005402,0.000416412,0.000478096,0.0171203,-0.00027195,0.00094429,0.000911636,0.000722923,-0.034269,0.00228104,-0.000714417,0.0142138,-0.0213507,0.0012875,0.00126843,-0.00772003
11,2,0,0,0,0,0,0,231.8,254,0,0,0,0,0,0,0,231.8,766,0,0.000807228,0.000340118,0.000478096,0.0159759,-0.000310097,0.000867996,0.00060646,0.000608482,-0.0136315,0.000869598,0.000735168,0.0120013,-0.0208167,0.00147823,0.00020031,-0.00894073
11,3,0,0,0,0,0,0,231.8,254,0,0,0,0,0,0,0,231.8,766,0,0.000502053,0.000530853,0.00055439,0.0158996,-0.002103,0.00094429,0.000797195,-7.81631e-05,0.122172,0.000335541,0.000201111,0.0115817,-0.0218085,0.000562706,0.0010014,-0.00840668
11,4,0,0,0,0,0,0,231.8,254,0,0,0,0,0,0,0,231.8,766,0,0.000654641,-7.94986e-05,0.000134773,0.0163955,-0.00191227,0.00117317,0.000263138,0.000646629,-0.0309121,0.000793304,0.000353699,0.0136798,-0.0221136,0.00117306,0.00115398,-0.00905518
11,5,0,0,0,0,0,0,231.8,254,0,0,0,0,0,0,0,231.8,766,0,0.000273171,0.000988617,0.00093586,0.0170822,0.000567284,0.000982437,-0.000156479,0.000455895,-0.064367,0.00125107,0.00138367,0.0151294,-0.0211218,0.0012875,0.00069622,-0.0081015
11,6,0,0,0,0,0,0,231.8,254,0,0,0,0,0,0,0,231.8,766,0,0.00107426,0.000721588,-5.59617e-05,0.0158233,-0.000310097,0.000791702,0.000148697,0.000684776,-0.0118005,0.00109848,-0.000790711,0.014786,-0.0218848,0.00113491,0.00142101,-0.00840668
11,7,0,0,0,0,0,0,231.8,254,0,0,0,0,0,0,0,231.8,766,0,0.0011124,0.0017897,0.000706978,0.0167389,0.00152096,0.00109688,0.000797195,0.000570335,0.0548423,0.00159439,0.000773315,0.0143283,-0.0210455,-9.49856e-06,0.000886955,-0.00829224
11,8,0,0,0,0,0,0,231.8,254,0,0,0,0,0,0,0,231.8,766,0,0.000502053,0.000836029,0.000821419,0.0160141,0.00289425,0.000791702,0.000911636,0.000951805,0.0539649,0.000678863,0.0010022,0.0137561,-0.0200156,0.00102047,0.000238457,-0.00749115
11,9,0,0,0,0,0,0,231.8,254,0,0,0,0,0,0,0,231.8,766,0,-0.000451622,0.000912323,0.000134773,0.0163955,0.00243649,0.000906143,-0.000537949,0.000494041,-0.071119,0.00109848,0.000391846,0.014786,-0.0208929,0.00136379,0.000543633,-0.0110007
12,0,0,0,0,0,0,0,231.8,254,0,0,0,0,0,0,0,231.8,766,0,0.000769082,0.000454559,-0.000818901,0.0158996,0.00323757,0.000715408,0.00117867,0.000379601,0.0699866,0.000564422,-0.000256653,0.0154727,-0.0212363,0.000677147,-0.000486336,-0.00825409
12,1,0,0,0,0,0,0,231.8,254,0,0,0,0,0,0,0,231.8,766,0,-0.000375328,0.000988617,0.00162251,0.0164337,0.00304684,0.00159279,0.00178902,0.000875511,0.0499976,0.00125107,0.000277405,0.0159304,-0.020397,0.00140194,0.00184063,-0.00661377
12,2,0,0,0,0,0,0,231.8,254,0,0,0,0,0,0,0,231.8,766,0,0.000425759,0.000454559,0.000668831,0.0161285,0.00297054,0.000295792,0.000568314,0.000837364,-0.0684869,0.000793304,-0.000104065,0.0147097,-0.0206259,0.000639,0.00126843,-0.00894073
12,3,0,0,0,0,0,0,231.8,254,0,0,0,0,0,0,0,231.8,766,0,-0.000337181,-0.000270233,0.000478096,0.0163192,0.00487789,0.000333939,0.00106422,-0.000345192,0.0752509,0.00224289,0.000506287,0.0136035,-0.0211218,0.0012112,0.000619926,-0.00836853
12,4,0,0,0,0,0,0,231.8,254,0,0,0,0,0,0,0,231.8,766,0,0.000692788,0.000988617,0.00116474,0.0163574,0.00926479,0.00132576,0.000186844,0.00121883,0.0627006,0.000907745,0.00111664,0.0157016,-0.0208548,0.00105862,0.00103954,-0.00878815
12,5,0,0,0,0,0,0,231.8,254,0,0,0,0,0,0,0,231.8,766,0,0.00015873,0.00144638,0.000516243,0.0165863,0.00720486,0.00102058,0.00106422,0.000455895,-0.0715386,0.00140366,0.000773315,0.0145953,-0.0216177,0.00189785,0.00164989,-0.00947479
12,6,0,0,0,0,0,0,231.8,254,0,0,0,0,0,0,0,231.8,766,0,0.000235024,0.000149383,0.00116474,0.0162429,0.00552639,0.00117317,0.000415726,0.000646629,0.0754798,0.00159439,1.03759e-05,0.0126879,-0.0202063,0.0012875,-0.000448189,-0.00798706
12,7,0,0,0,0,0,0,231.8,254,0,0,0,0,0,0,0,231.8,766,0,0.000959816,0.000836029,0.00055439,0.0166626,0.00888332,0.00147835,0.00140755,-1.86916e-06,0.0693,0.000488129,0.00142181,0.014786,-0.0215033,0.000677147,0.000467339,-0.00985626
12,8,0,0,0,0,0,0,231.8,254,0,0,0,0,0,0,0,231.8,766,0,-3.20049e-05,-4.13517e-05,0.000630684,0.0154037,0.00812038,0.000410232,0.00125496,0.000341454,-0.0896966,0.000678863,4.85228e-05,0.0150531,-0.0216177,0.000219383,0.000429192,-0.00741486
12,9,0,0,0,0,0,0,231.8,254,0,0,0,0,0,0,0,231.8,766,0,0.000883522,0.000988617,0.000783272,0.0161285,0.0143765,0.000867996,0.000949783,0.00110439,-0.0261437,0.000526275,0.000277405,0.0124209,-0.0218085,0.000829735,0.000619926,-0.00794891
13,0,0,0,0,0,0,0,231.8,254,0,0,0,0,0,0,0,231.8,766,0,-0.000108299,0.000416412,0.00135548,0.0165863,0.0138424,0.00117317,0.00049202,0.000799217,0.00101692,0.00109848,0.0010022,0.0159304,-0.0210074,0.00124935,8.58689e-05,-0.00737671
13,1,0,0,0,0,0,0,231.8,254,0,0,0,0,0,0,0,231.8,766,0,-0.000146446,0.000492706,0.000516243,0.0159759,0.0130413,0.000639114,7.24029e-05,0.000494041,0.0934852,0.00125107,0.000277405,0.0189822,-0.0227621,0.000867882,0.00145916,-0.00852112
13,2,0,0,0,0,0,0,231.8,254,0,0,0,0,0,0,0,231.8,766,0,0.00015873,0.000721588,-0.000475578,0.0164718,0.0145291,0.000410232,0.000301285,-0.00011631,-0.0404107,0.000678863,0.000315552,0.020737,-0.021694,0.00105862,-0.000524483,-0.00955109
13,3,0,0,0,0,0,0,231.8,254,0,0,0,0,0,0,0,231.8,766,0,-0.000375328,-3.20468e-06,0.00150806,0.0167389,0.0178479,0.00189796,0.00228493,-0.00011631,-0.0145852,0.00174698,0.00058258,0.0182193,-0.0200537,0.00155453,0.00119213,-0.00710968
13,4,0,0,0,0,0,0,231.8,254,0,0,0,0,0,0,0,231.8,766,0,0.0005402,0.000416412,0.000516243,0.0162811,0.0146054,-0.000123825,0.000911636,0.000799217,0.0997794,0.000373688,0.000887756,0.0162738,-0.021694,-0.000162086,0.00115398,-0.00825409
13,5,0,0,0,0,0,0,231.8,254,0,0,0,0,0,0,0,231.8,766,0,0.000883522,0.000111236,0.000401802,0.0165863,0.0109433,0.000105057,0.000835342,-1.86916e-06,-0.0377785,0.00117477,0.00115479,0.0180285,-0.0205496,0.00144009,0.00107769,-0.00924591
13,6,0,0,0,0,0,0,231.8,254,0,0,0,0,0,0,0,231.8,766,0,0.000425759,0.00018753,0.0010503,0.0163192,0.00922665,0.00166908,0.00060646,0.000570335,-0.0144326,0.000297394,0.000391846,0.0173037,-0.0209692,0.000448265,0.00111584,-0.00871185
13,7,0,0,0,0,0,0,231.8,254,0,0,0,0,0,0,0,231.8,766,0,0.000730935,0.000225677,-0.00020855,0.0162429,0.00655636,-0.000161972,0.000530167,-0.000612221,0.115038,3.03648e-05,0.000162964,0.0148623,-0.0222662,0.000333824,-0.000333748,-0.010314
13,8,0,0,0,0,0,0,231.8,254,0,0,0,0,0,0,0,231.8,766,0,6.14207e-06,-0.000842438,0.00158436,0.0160904,0.00571712,0.000829849,0.00125496,0.0010281,-0.0367104,0.00117477,0.00107849,0.0174182,-0.02013,0.00197414,0.00138287,-0.00749115
13,9,0,0,0,0,0,0,231.8,254,0,0,0,0,0,0,0,231.8,766,0,0.000387612,0.000683441,-0.000399284,0.0154419,0.00400051,0.000600967,0.000835342,0.000684776,-0.0151955,0.000297394,-0.0002948,0.0145953,-0.0221518,-4.76455e-05,0.00119213,-0.00878815
14,0,0,0,0,0,0,0,231.8,254,0,0,0,0,0,0,0,231.8,766,0,0.000997963,0.000530853,0.000325508,0.0160522,-0.000348244,0.000524673,0.00060646,-7.81631e-05,0.118662,-0.000236664,0.000201111,0.0143283,-0.021427,0.000906029,0.000848808,-0.00905518
14,1,0,0,0,0,0,0,231.8,254,0,0,0,0,0,0,0,231.8,766,0,0.000502053,0.00171341,0.00192768,0.0162429,-0.0028278,0.000982437,0.000682754,0.000455895,-0.0322472,0.000793304,0.00123108,0.0149768,-0.0204733,0.00132565,0.00123028,-0.00863556
14,2,0,0,0,0,0,0,231.8,254,0,0,0,0,0,0,0,231.8,766,0,0.000997963,0.000378265,0.000974007,0.0161666,-0.0027515,0.000257645,0.00144569,-1.86916e-06,-0.0668847,0.000144806,0.000391846,0.0133746,-0.0212744,0.00105862,0.0010014,-0.00848297
14,3,0,0,0,0,0,0,231.8,254,0,0,0,0,0,0,0,231.8,766,0,0.000921669,0.000683441,0.00055439,0.0163574,-0.0059177,0.000791702,0.00060646,3.62778e-05,-0.0146615,0.00159439,0.000925903,0.0133746,-0.0213507,-0.000696144,0.00020031,-0.00802521
14,4,0,0,0,0,0,0,231.8,254,0,0,0,0,0,0,0,231.8,766,0,-3.20049e-05,0.000759735,0.00055439,0.0163192,-0.00393406,0.000600967,0.00117867,-0.000459633,0.052172,0.000564422,0.00104034,0.0136798,-0.0207404,0.000562706,0.00069622,-0.00882629
14,5,0,0,0,0,0,0,231.8,254,0,0,0,0,0,0,0,231.8,766,0,0.0011124,-0.000460968,0.00131733,0.0167389,-0.00145451,0.000753555,0.00106422,0.000608482,0.0510276,-0.000312958,0.00180328,0.0122302,-0.0206259,0.00155453,0.00103954,-0.00897888
14,6,0,0,0,0,0,0,231.8,254,0,0,0,0,0,0,0,231.8,766,0,0.000349465,-0.000346527,0.000401802,0.0160904,-0.00137821,0.000524673,0.00060646,0.000684776,-0.0740563,0.000106659,0.000162964,0.013222,-0.0218466,0.000143089,0.00069622,-0.00924591
14,7,0,0,0,0,0,0,231.8,254,0,0,0,0,0,0,0,231.8,766,0,0.00137943,0.000301971,0.000211067,0.0155563,-4.92088e-06,-4.75312e-05,0.0013694,0.000722923,0.0674689,0.000297394,-0.0002948,0.0110476,-0.0199774,0.000143089,0.00168804,-0.00794891
14,8,0,0,0,0,0,0,231.8,254,0,0,0,0,0,0,0,231.8,766,0,0.00137943,0.001866,0.00143177,0.017044,0.000834313,0.00121132,0.00228493,0.000150719,0.0482429,0.000602569,0.00161255,0.00608852,-0.0205878,0.00132565,0.000925102,-0.00886444
14,9,0,0,0,0,0,0,231.8,254,0,0,0,0,0,0,0,231.8,766,0,0.000349465,-3.20468e-06,0.000783272,0.0163192,0.00339016,0.000333939,0.000911636,0.000646629,-0.0694024,-0.000732575,0.000925903,0.0095599,-0.020397,0.000753441,0.000963249,-0.00920776
15,0,0,0,0,0,0,0,231.8,254,0,0,0,0,0,0,0,231.8,766,0,0.00141758,0.000340118,-0.000551872,0.0160141,0.00270351,0.000143204,0.000224991,0.000112572,0.0737632,-0.000389252,-0.000523682,0.0101321,-0.0234488,-0.000848732,-0.000371895,-0.00981812
15,1,0,0,0,0,0,0,231.8,254,0,0,0,0,0,0,0,231.8,766,0,0.000196877,0.000530853,-0.000361137,0.017044,0.00247463,0.000639114,0.000873489,0.000150719,0.059954,0.000869598,0.000315552,0.010361,-0.021427,2.86484e-05,0.00058178,-0.00791077
15,2,0,0,0,0,0,0,231.8,254,0,0,0,0,0,0,0,231.8,766,0,0.0011124,-0.000155793,-0.000132256,0.0156707,-0.0021793,0.000639114,0.000148697,0.000532188,-0.0727593,0.000106659,0.000429993,0.010895,-0.0208929,0.000829735,0.000963249,-0.00871185
15,3,0,0,0,0,0,0,231.8,254,0,0,0,0,0,0,0,231.8,766,0,0.000807228,0.000607147,0.00112659,0.0166244,-0.000119362,0.00056282,0.00197975,0.000799217,0.0748695,0.000449982,0.00104034,0.0113147,-0.0208167,-9.49856e-06,0.000391045,-0.00844482
15,4,0,0,0,0,0,0,231.8,254,0,0,0,0,0,0,0,231.8,766,0,0.000463906,3.49423e-05,0.000363655,0.0160522,0.000948753,0.000105057,0.000530167,0.000227013,0.0691856,0.000869598,0.000162964,0.0127642,-0.0218085,0.000448265,0.000925102,-0.00936035
15,5,0,0,0,0,0,0,231.8,254,0,0,0,0,0,0,0,231.8,766,0,0.00122685,0.000912323,0.00116474,0.0161285,-0.000806007,0.000753555,0.00110237,0.000913658,-0.0896584,0.000984039,0.00153625,0.0164645,-0.0210455,0.000524559,0.00130657,-0.00890259
15,6,0,0,0,0,0,0,231.8,254,0,0,0,0,0,0,0,231.8,766,0,0.000730935,3.49423e-05,0.000668831,0.0162048,-0.002103,0.000257645,0.00129311,0.000455895,-0.0263726,0.0002211,0.000239258,0.0155871,-0.0204733,0.000448265,-0.000257454,-0.00989441
15,7,0,0,0,0,0,0,231.8,254,0,0,0,0,0,0,0,231.8,766,0,0.0017609,0.00110306,0.000363655,0.0161285,0.00445827,0.000257645,-0.000118332,0.0016766,0.00139839,-0.00016037,0.000887756,0.0146716,-0.0216559,0.00124935,0.00206951,-0.010047
15,8,0,0,0,0,0,0,231.8,254,0,0,0,0,0,0,0,231.8,766,0,0.000463906,0.000530853,5.84793e-05,0.0163192,0.00384792,6.69097e-05,0.000224991,0.000227013,0.0923408,0.000526275,0.00115479,0.0163501,-0.0221136,0.00117306,0.000658073,-0.00859741
15,9,0,0,0,0,0,0,231.8,254,0,0,0,0,0,0,0,231.8,766,0,0.0005402,-0.000422821,0.000783272,0.0157089,0.00499233,0.00128761,0.000224991,0.000608482,-0.0387322,0.000755157,0.000620727,0.01738,-0.0203207,0.00109676,0.000886955,-0.00768188
16,0,0,0,0,0,0,0,231.8,254,0,0,0,0,0,0,0,231.8,766,0,0.00191349,0.000378265,0.00108845,0.0173874,0.00426754,0.000906143,0.00186531,0.00076107,-0.0128304,0.00109848,0.000429993,0.0115817,-0.0210074,0.000562706,0.00103954,-0.00882629
16,1,0,0,0,0,0,0,231.8,254,0,0,0,0,0,0,0,231.8,766,0,0.000311318,-0.000651703,-5.59617e-05,0.0158615,0.00678524,-0.000200119,0.000759048,0.000150719,0.0988258,0.000488129,-0.000867005,0.0109713,-0.0218848,0.000448265,0.000124016,-0.00813965
16,2,0,0,0,0,0,0,231.8,254,0,0,0,0,0,0,0,231.8,766,0,0.00157017,0.000416412,0.000592537,0.0167389,0.00655636,0.00140205,0.000148697,0.00133327,-0.0412881,0.00159439,0.00161255,0.011925,-0.0215796,0.000181236,0.00206951,-0.00806335
16,3,0,0,0,0,0,0,231.8,254,0,0,0,0,0,0,0,231.8,766,0,0.00015873,0.000149383,-0.000170403,0.0163574,0.00560268,-0.000123825,0.000301285,-0.000459633,-0.0129067,0.000564422,4.85228e-05,0.00978878,-0.0213889,-0.000581703,-0.00136372,-0.00848297
16,4,0,0,0,0,0,0,231.8,254,0,0,0,0,0,0,0,231.8,766,0,0.000463906,-0.000270233,0.000249214,0.0155182,0.00636562,0.000372085,0.000415726,0.00129513,0.113741,-0.00016037,0.00123108,0.0124972,-0.0214651,0.00113491,0.00161175,-0.00951294
16,5,0,0,0,0,0,0,231.8,254,0,0,0,0,0,0,0,231.8,766,0,0.00179905,0.000988617,0.000745125,0.0171203,0.00956997,0.000410232,0.00129311,0.00106625,-0.0352227,0.000106659,0.00168884,0.0171893,-0.0214651,0.000448265,0.000734367,-0.00901703
16,6,0,0,0,0,0,0,231.8,254,0,0,0,0,0,0,0,231.8,766,0,0.000235024,0.000683441,0.000478096,0.0154419,0.0125836,0.000677261,0.000415726,-0.000154457,-0.0150048,0.000831451,0.000315552,0.0163882,-0.021427,0.000906029,0.0010014,-0.010314
16,7,0,0,0,0,0,0,231.8,254,0,0,0,0,0,0,0,231.8,766,0,0.00137943,0.00152267,0.00112659,0.0164718,0.00922665,0.00147835,0.00110237,0.000913658,0.119349,0.000831451,0.00111664,0.0187533,-0.0207022,0.000295677,0.000886955,-0.00733856
16,8,0,0,0,0,0,0,231.8,254,0,0,0,0,0,0,0,231.8,766,0,0.0011124,0.000530853,0.000516243,0.016777,0.0104855,0.000448379,0.000911636,0.000722923,-0.0341164,0.00155624,0.00130737,0.0202029,-0.02116,0.000982323,0.00149731,-0.00848297
16,9,0,0,0,0,0,0,231.8,254,0,0,0,0,0,0,0,231.8,766,0,-0.000108299,-0.000880585,0.000668831,0.0163955,0.0107144,0.00056282,0.00098793,0.000227013,-0.066694,0.000182953,-0.000409241,0.0185626,-0.0209692,0.000829735,0.000963249,-0.00813965
17,0,0,0,0,0,0,0,231.8,254,0,0,0,0,0,0,0,231.8,766,0,0.00126499,0.000836029,0.000745125,0.0163955,0.0109051,0.000372085,0.00049202,7.44248e-05,-0.0131356,0.000831451,0.0010022,0.0152056,-0.0213889,-4.76455e-05,0.00195507,-0.00821594
17,1,0,0,0,0,0,0,231.8,254,0,0,0,0,0,0,0,231.8,766,0,0.00107426,0.000530853,0.000211067,0.0159378,0.00815853,0.00109688,0.00060646,0.000417748,0.0517905,0.000602569,0.000697021,0.0159686,-0.02116,0.00102047,-0.000333748,-0.00859741
17,2,0,0,0,0,0,0,231.8,254,0,0,0,0,0,0,0,231.8,766,0,0.000730935,0.000416412,0.000821419,0.0158233,0.00838741,0.000791702,0.00148384,0.00114254,0.0515617,0.000564422,0.000429993,0.0161975,-0.0216559,0.000639,0.00103954,-0.00764374
17,3,0,0,0,0,0,0,231.8,254,0,0,0,0,0,0,0,231.8,766,0,0.000807228,-0.00019394,0.000516243,0.0162811,0.00709042,-8.56782e-05,-8.0185e-05,0.000684776,-0.072149,0.00113663,-0.00105774,0.017113,-0.0208548,0.000982323,0.000658073,-0.00924591
17,4,0,0,0,0,0,0,231.8,254,0,0,0,0,0,0,0,231.8,766,0,0.000730935,0.000759735,0.000478096,0.0162811,0.00628933,0.000181351,0.000644607,0.00110439,0.0688422,0.000182953,-6.59181e-05,0.0184863,-0.0213507,0.000104942,0.00119213,-0.00699524
17,5,0,0,0,0,0,0,231.8,254,0,0,0,0,0,0,0,231.8,766,0,0.00179905,0.0012175,0.000478096,0.0167389,0.00403866,0.000982437,0.000339432,0.00076107,0.0485862,0.00121292,0.0010022,0.0150912,-0.0204733,0.00140194,-0.00018116,-0.00787262
17,6,0,0,0,0,0,0,231.8,254,0,0,0,0,0,0,0,231.8,766,0,0.000502053,3.49423e-05,0.000249214,0.0158996,0.0028561,6.69097e-05,-0.000461655,0.000112572,-0.070089,0.000907745,-0.000218506,0.0112384,-0.021694,-9.49856e-06,0.000352898,-0.00875
17,7,0,0,0,0,0,0,231.8,254,0,0,0,0,0,0,0,231.8,766,0,0.000349465,0.000378265,0.00093586,0.0159378,0.00335201,0.00140205,0.000644607,0.00026516,0.0745643,0.000526275,0.000773315,0.0131839,-0.0202826,0.00132565,0.00191692,-0.00768188
17,8,0,0,0,0,0,0,231.8,254,0,0,0,0,0,0,0,231.8,766,0,0.00126499,-0.000422821,0.000783272,0.0164718,0.00438198,0.000982437,0.000949783,0.000989952,0.0610603,0.000182953,0.000391846,0.0164264,-0.0209311,0.00182156,0.00164989,-0.00718597
17,9,0,0,0,0,0,0,231.8,254,0,0,0,0,0,0,0,231.8,766,0,0.000769082,0.000225677,0.000706978,0.0155944,0.00499233,0.00124947,0.000873489,0.000379601,-0.0718056,0.000831451,0.00111664,0.0160067,-0.0204352,0.0012112,0.00103954,-0.00867371
18,0,0,0,0,0,0,0,231.8,254,0,0,0,0,0,0,0,231.8,766,0,0.000387612,0.00095047,0.000325508,0.0154419,0.00281796,6.69097e-05,0.00102608,0.000494041,0.0757468,0.000144806,-6.59181e-05,0.0199359,-0.0214651,0.000562706,0.00218395,-0.00756744
18,1,0,0,0,0,0,0,231.8,254,0,0,0,0,0,0,0,231.8,766,0,0.000769082,0.00156082,0.0016988,0.0163574,0.00110134,0.000829849,0.00144569,0.000646629,0.0699866,0.00132736,0.000811462,0.0183718,-0.0205878,-8.57925e-05,0.00115398,-0.00775818
18,2,0,0,0,0,0,0,231.8,254,0,0,0,0,0,0,0,231.8,766,0,0.000349465,0.000645294,9.66262e-05,0.0162429,0.00247463,0.00094429,0.000911636,0.000150719,-0.0875222,0.000449982,-0.000180359,0.016846,-0.0214651,0.000753441,0.00134472,-0.0081778
18,3,0,0,0,0,0,0,231.8,254,0,0,0,0,0,0,0,231.8,766,0,0.00126499,0.000721588,0.000783272,0.0164337,0.000147667,0.00170723,0.000453873,0.000570335,-0.0261056,0.000831451,0.0010022,0.0189059,-0.0215796,0.00102047,0.000619926,-0.0106192
18,4,0,0,0,0,0,0,231.8,254,0,0,0,0,0,0,0,231.8,766,0,0.0005402,0.00117935,0.000401802,0.01651,0.00194057,0.000753555,0.00121681,0.000532188,0.00116951,0.000907745,-6.59181e-05,0.0198596,-0.0220755,0.0012112,0.000848808,-0.00951294
18,5,0,0,0,0,0,0,231.8,254,0,0,0,0,0,0,0,231.8,766,0,0.000349465,0.000988617,0.000897713,0.0161666,0.00232204,0.00136391,0.000224991,0.000494041,0.0932563,-4.59291e-05,0.000620727,0.0199359,-0.0204733,0.000944176,0.000886955,-0.00882629
18,6,0,0,0,0,0,0,231.8,254,0,0,0,0,0,0,0,231.8,766,0,-7.01519e-05,-0.000232087,0.000439949,0.0165481,-0.000844154,0.00056282,0.00110237,-0.000154457,-0.0405633,0.00128921,0.000544433,0.0145953,-0.0213126,0.000600853,4.77219e-05,-0.00707153
18,7,0,0,0,0,0,0,231.8,254,0,0,0,0,0,0,0,231.8,766,0,0.00103611,0.00144638,0.000287361,0.0147934,-0.000119362,0.000105057,-0.000118332,7.44248e-05,-0.0140893,0.000869598,0.000239258,0.0155871,-0.0224951,0.000333824,0.000505486,-0.00844482
18,8,0,0,0,0,0,0,231.8,254,0,0,0,0,0,0,0,231.8,766,0,0.000959816,0.00117935,0.000783272,0.0175018,0.00442013,0.000715408,0.000835342,0.0016003,0.0995506,0.00132736,0.000162964,0.0195163,-0.0201682,-4.76455e-05,0.00119213,-0.00829224
18,9,0,0,0,0,0,0,231.8,254,0,0,0,0,0,0,0,231.8,766,0,0.000730935,0.000721588,0.00120289,0.0168914,0.00609859,0.00109688,0.00114052,7.44248e-05,-0.0372063,0.000259247,0.00058258,0.018143,-0.0210455,0.00174526,0.00107769,-0.0081778
19,0,0,0,0,0,0,0,231.8,254,0,0,0,0,0,0,0,231.8,766,0,0.000959816,0.000416412,-0.000818901,0.0160522,0.00617489,0.000219498,-0.000576096,0.000608482,-0.0150048,0.000564422,-0.0002948,0.0144809,-0.022724,0.000486412,0.000429192,-0.00943665
19,1,0,0,0,0,0,0,231.8,254,0,0,0,0,0,0,0,231.8,766,0,-0.00106197,0.000759735,0.000287361,0.0163192,0.0029324,0.00113502,0.000911636,0.000379601,0.113245,0.00159439,0.00058258,0.0117343,-0.02013,0.00117306,0.000429192,-0.00791077
19,2,0,0,0,0,0,0,231.8,254,0,0,0,0,0,0,0,231.8,766,0,0.000883522,-0.000117646,9.66262e-05,0.0154037,0.00201687,0.000715408,0.0013694,0.000646629,-0.0357568,0.000106659,-0.0002948,0.00742367,-0.0206259,0.000715294,0.000963249,-0.00722412
19,3,0,0,0,0,0,0,231.8,254,0,0,0,0,0,0,0,231.8,766,0,0.0005402,0.000416412,0.000134773,0.015747,-0.000653419,0.000448379,0.000568314,0.00026516,-0.0148141,0.000182953,0.000201111,0.0095599,-0.020397,0.0018597,0.000543633,-0.00855927
19,4,0,0,0,0,0,0,231.8,254,0,0,0,0,0,0,0,231.8,766,0,0.000425759,0.000263824,0.000745125,0.0158996,-0.00156895,0.00094429,0.00114052,0.000455895,0.118204,0.0021666,0.000353699,0.0108569,-0.0216559,0.000410118,0.000467339,-0.00676636
19,5,0,0,0,0,0,0,231.8,254,0,0,0,0,0,0,0,231.8,766,0,0.000997963,0.000607147,-0.000399284,0.0163955,-0.00332371,0.00147835,0.000720901,0.000684776,-0.0329339,0.000984039,4.85228e-05,0.0105899,-0.0218085,0.000448265,0.000429192,-0.00844482
19,6,0,0,0,0,0,0,231.8,254,0,0,0,0,0,0,0,231.8,766,0,0.000616494,-0.00019394,0.000745125,0.0165481,-0.00164524,0.000372085,0.000873489,-0.000726662,-0.0661217,0.000907745,0.00115479,0.00963619,-0.0202063,0.00136379,-0.000219307,-0.00836853
19,7,0,0,0,0,0,0,231.8,254,0,0,0,0,0,0,0,231.8,766,0,0.0005402,0.0011412,0.00135548,0.0170822,0.00152096,0.00102058,0.000949783,-0.000726662,-0.0130212,0.00186142,-0.000104065,0.00990322,-0.0208548,0.00109676,0.00149731,-0.00890259
19,8,0,0,0,0,0,0,231.8,254,0,0,0,0,0,0,0,231.8,766,0,-0.000108299,0.000569,-0.00020855,0.0155944,0.00453457,0.000753555,0.000530167,-7.81631e-05,0.0509132,0.000945892,0.000735168,0.0128024,-0.0215033,0.000410118,0.000505486,-0.00905518
19,9,0,0,0,0,0,0,231.8,254,0,0,0,0,0,0,0,231.8,766,0,0.000463906,0.000378265,-0.000284843,0.0158233,0.00316128,0.00056282,-0.000385361,0.000341454,0.051142,0.000373688,-0.000638123,0.0121539,-0.0212744,0.000562706,-0.000371895,-0.00867371
20,0,0,0,0,0,0,0,231.8,254,0,0,0,0,0,0,0,231.8,766,0,0.000730935,0.00156082,0.00120289,0.0166244,0.00518307,0.00094429,0.00121681,0.0016003,-0.0706231,0.00071701,0.000811462,0.0129168,-0.0207404,0.00163082,0.0015736,-0.00821594
20,1,0,0,0,0,0,0,231.8,254,0,0,0,0,0,0,0,231.8,766,0,0.00015873,0.00102676,0.00101215,0.0160904,0.00464901,0.000333939,0.00106422,-0.000268898,0.0666297,0.00163254,0.000544433,0.0161975,-0.0211218,0.00136379,0.00111584,-0.00871185
20,2,0,0,0,0,0,0,231.8,254,0,0,0,0,0,0,0,231.8,766,0,0.00015873,-0.000613556,0.000249214,0.0160904,0.0035046,0.000333939,0.000263138,-0.000612221,0.048014,-0.000198517,-0.0002948,0.0138324,-0.0216559,-0.000734291,8.58689e-05,-0.00901703
20,3,0,0,0,0,0,0,231.8,254,0,0,0,0,0,0,0,231.8,766,0,0.000502053,0.00110306,0.000401802,0.0162048,0.00373348,0.000867996,0.000911636,0.000722923,-0.068792,0.000869598,8.66698e-05,0.0139468,-0.019863,0.00147823,0.000124016,-0.00909332
20,4,0,0,0,0,0,0,231.8,254,0,0,0,0,0,0,0,231.8,766,0,0.000502053,0.00129379,0.00116474,0.0166244,0.00430569,0.000600967,0.00144569,0.000646629,0.0742591,0.00140366,0.000773315,0.0162356,-0.0208167,0.000867882,0.00119213,-0.00897888
20,5,0,0,0,0,0,0,231.8,254,0,0,0,0,0,0,0,231.8,766,0,-7.01519e-05,0.000530853,0.000897713,0.0153274,0.00514492,0.00124947,0.000682754,-0.000383339,0.0603736,0.00102219,-0.000638123,0.0135653,-0.0211981,2.86484e-05,0.0010014,-0.00806335
20,6,0,0,0,0,0,0,231.8,254,0,0,0,0,0,0,0,231.8,766,0,0.0005402,0.000759735,0.00101215,0.0161666,0.00506863,0.00163094,0.00125496,0.000150719,-0.0716149,0.00106033,0.00111664,0.0162738,-0.0215033,0.00144009,0.000238457,-0.00813965
20,7,0,0,0,0,0,0,231.8,254,0,0,0,0,0,0,0,231.8,766,0,0.00115055,0.00095047,0.0016988,0.017044,0.0054501,0.000486526,0.00106422,0.000188866,0.0756705,0.00174698,-2.77711e-05,0.0171893,-0.0212744,2.86484e-05,-0.000867805,-0.00859741
20,8,0,0,0,0,0,0,231.8,254,0,0,0,0,0,0,0,231.8,766,0,-0.000413475,0.000149383,0.000745125,0.0155944,0.00632748,0.000219498,0.00140755,0.000684776,0.0686897,0.000526275,0.000925903,0.0137179,-0.0220374,0.000448265,0.00069622,-0.00936035
20,9,0,0,0,0,0,0,231.8,254,0,0,0,0,0,0,0,231.8,766,0,0.000769082,0.0012175,0.00177509,0.0171966,0.00815853,0.000829849,0.00098793,0.000341454,-0.0874459,0.00186142,0.00210846,0.0131457,-0.0213507,0.000677147,0.000886955,-0.00844482
21,0,0,0,0,0,0,0,231.8,254,0,0,0,0,0,0,0,231.8,766,0,0.000997963,0.000111236,0.000668831,0.01651,0.00701412,0.00102058,0.000453873,-1.86916e-06,-0.0254189,0.000335541,-0.000523682,0.0105136,-0.0206641,0.000600853,-0.000677071,-0.00806335
21,1,0,0,0,0,0,0,231.8,254,0,0,0,0,0,0,0,231.8,766,0,0.000692788,0.000492706,0.000706978,0.016777,0.00682339,0.000753555,0.000911636,0.000646629,0.000940628,0.00071701,0.000277405,0.00925472,-0.0204352,0.0018597,0.000505486,-0.00951294
21,2,0,0,0,0,0,0,231.8,254,0,0,0,0,0,0,0,231.8,766,0,-3.20049e-05,0.000530853,0.000325508,0.0159759,0.00388607,0.000333939,0.00049202,0.000341454,0.0925315,0.00113663,-0.000790711,0.00994137,-0.0216559,0.000867882,0.000429192,-0.00798706
21,3,0,0,0,0,0,0,231.8,254,0,0,0,0,0,0,0,231.8,766,0,0.000463906,0.00133194,0.00093586,0.0167389,0.00834927,0.00102058,0.000682754,0.000227013,-0.0390374,0.00132736,0.00096405,0.0153201,-0.0207022,0.000562706,0.0015736,-0.00852112
21,4,0,0,0,0,0,0,231.8,254,0,0,0,0,0,0,0,231.8,766,0,-0.000833091,0.000378265,0.000363655,0.0158615,0.00865444,0.00121132,0.000682754,-0.000421486,-0.0133645,0.000945892,-0.0002948,0.0123828,-0.0216177,0.000219383,-0.000524483,-0.00936035
21,5,0,0,0,0,0,0,231.8,254,0,0,0,0,0,0,0,231.8,766,0,0.000654641,0.00198044,0.000592537,0.0172348,0.00758633,0.000906143,0.000759048,0.000684776,0.0981773,0.000602569,-6.59181e-05,0.0179141,-0.02116,0.00113491,0.00145916,-0.00859741
21,6,0,0,0,0,0,0,231.8,254,0,0,0,0,0,0,0,231.8,766,0,0.000387612,0.000683441,0.00116474,0.0163192,0.00556454,0.00056282,0.000148697,0.000570335,-0.0381219,0.000945892,0.000697021,0.0179904,-0.0211981,0.00102047,0.000238457,-0.00794891
21,7,0,0,0,0,0,0,231.8,254,0,0,0,0,0,0,0,231.8,766,0,0.00015873,0.000263824,-0.000933342,0.015747,0.00674709,0.000410232,-0.00065239,-0.000574074,-0.0136315,0.000373688,0.000277405,0.0169986,-0.0216559,0.000371971,-0.00113483,-0.00875
21,8,0,0,0,0,0,0,231.8,254,0,0,0,0,0,0,0,231.8,766,0,0.0011887,0.00110306,0.00124104,0.0170059,0.0106762,0.00109688,0.00049202,0.00133327,0.113245,0.00174698,0.00107849,0.0169604,-0.0214651,0.00166897,0.00142101,-0.00836853
21,9,0,0,0,0,0,0,231.8,254,0,0,0,0,0,0,0,231.8,766,0,0.000769082,0.00144638,2.03323e-05,0.0170822,0.0115536,0.00094429,0.000530167,0.000341454,-0.0356042,0.00113663,1.03759e-05,0.0146334,-0.0212363,0.000867882,-0.000143013,-0.00787262
22,0,0,0,0,0,0,0,231.8,254,0,0,0,0,0,0,0,231.8,766,0,-0.000375328,0.00095047,0.000783272,0.0154419,0.0131176,0.00102058,0.00156013,0.000494041,-0.0140893,0.00121292,-0.000104065,0.0145953,-0.0207404,0.000600853,0.000810661,-0.00829224
22,1,0,0,0,0,0,0,231.8,254,0,0,0,0,0,0,0,231.8,766,0,0.000921669,0.001866,0.00154621,0.0171966,0.0124691,0.000410232,0.000682754,0.0010281,0.118586,0.00128921,0.00199402,0.013489,-0.0210837,0.00025753,0.00119213,-0.00871185
22,2,0,0,0,0,0,0,231.8,254,0,0,0,0,0,0,0,231.8,766,0,0.00130314,7.30893e-05,0.000668831,0.0154037,0.00941738,0.000105057,0.000453873,3.62778e-05,-0.0328576,0.00102219,-2.77711e-05,0.0148242,-0.0223807,0.000715294,0.000925102,-0.00791077
22,3,0,0,0,0,0,0,231.8,254,0,0,0,0,0,0,0,231.8,766,0,0.000578347,0.00125565,0.000783272,0.0147552,0.00865444,0.00121132,7.24029e-05,0.00129513,-0.0646722,0.000640716,0.000277405,0.0158923,-0.0211218,-0.000162086,0.00069622,-0.00764374
22,4,0,0,0,0,0,0,231.8,254,0,0,0,0,0,0,0,231.8,766,0,0.00015873,0.000378265,0.00127918,0.0165863,0.00621304,0.000639114,0.00175087,-1.86916e-06,-0.0143945,0.00071701,0.000925903,0.0149005,-0.02013,0.00189785,0.000886955,-0.00855927
22,5,0,0,0,0,0,0,231.8,254,0,0,0,0,0,0,0,231.8,766,0,0.000845375,0.000569,0.000783272,0.0161285,0.00743374,0.000639114,0.000797195,-0.000421486,0.0509513,0.000564422,0.000620727,0.0148242,-0.0215033,0.000639,0.00149731,-0.00833038
22,6,0,0,0,0,0,0,231.8,254,0,0,0,0,0,0,0,231.8,766,0,0.00122685,0.000836029,0.0010503,0.016777,0.00838741,0.00163094,0.0013694,0.0010281,0.0518287,0.000182953,0.00180328,0.0155871,-0.0202826,0.00182156,0.00069622,-0.0104285
22,7,0,0,0,0,0,0,231.8,254,0,0,0,0,0,0,0,231.8,766,0,6.14207e-06,0.000683441,0.000745125,0.0150604,0.00144466,0.000677261,0.00060646,0.000150719,-0.0717294,0.000984039,0.000391846,0.0150149,-0.0214651,0.000715294,0.000848808,-0.0093985
22,8,0,0,0,0,0,0,231.8,254,0,0,0,0,0,0,0,231.8,766,0,0.000807228,0.000988617,0.00166065,0.0169296,0.000338402,0.000982437,0.00110237,0.00118069,0.0679649,0.00170883,0.0010022,0.0177615,-0.020397,0.000944176,0.00233654,-0.00829224
22,9,0,0,0,0,0,0,231.8,254,0,0,0,0,0,0,0,231.8,766,0,0.0011887,0.000263824,0.000783272,0.017044,0.00117764,0.00056282,0.00060646,0.000188866,0.0472129,0.00167068,0.000391846,0.0198596,-0.02013,0.00140194,0.00119213,-0.00936035
23,0,0,0,0,0,0,0,231.8,254,0,0,0,0,0,0,0,231.8,766,0,0.000311318,-0.000270233,0.000211067,0.0146026,0.00144466,0.000715408,0.00060646,0.000455895,-0.0688302,-0.00016037,0.000239258,0.01738,-0.0209311,0.000600853,0.000314751,-0.0099707
23,1,0,0,0,0,0,0,231.8,254,0,0,0,0,0,0,0,231.8,766,0,0.0005402,0.00137009,0.000134773,0.0176544,7.13731e-05,0.000829849,0.00114052,0.000913658,0.0737251,-0.000389252,0.000391846,0.0146334,-0.0209311,0.00105862,0.000925102,-0.00970367
23,2,0,0,0,0,0,0,231.8,254,0,0,0,0,0,0,0,231.8,766,0,0.000311318,0.000874176,0.00188953,0.0174255,-0.0015308,0.00094429,0.00125496,0.000532188,0.0607551,0.00125107,0.000697021,0.0144427,-0.0210837,0.0018597,0.000238457,-0.0081778
23,3,0,0,0,0,0,0,231.8,254,0,0,0,0,0,0,0,231.8,766,0,-0.000108299,0.000111236,0.000974007,0.0165863,-0.000729713,0.000486526,0.000835342,0.000532188,-0.0707757,0.000831451,0.000162964,0.0125735,-0.0208167,-0.000390968,0.00115398,-0.00848297
23,4,0,0,0,0,0,0,231.8,254,0,0,0,0,0,0,0,231.8,766,0,0.00191349,0.00125565,0.000706978,0.0167007,3.32261e-05,0.00113502,0.0013694,0.000379601,0.074755,0.00132736,0.00134552,0.0148242,-0.0211981,0.00151638,-0.000219307,-0.00836853
23,5,0,0,0,0,0,0,231.8,254,0,0,0,0,0,0,0,231.8,766,0,0.000235024,0.000683441,0.000478096,0.0153274,-0.00076786,0.000257645,0.000339432,0.000150719,0.0686134,-0.000236664,0.000735168,0.0164264,-0.0215033,-0.000200233,-0.000295601,-0.0099707
23,6,0,0,0,0,0,0,231.8,254,0,0,0,0,0,0,0,231.8,766,0,0.000425759,0.000797882,0.0010503,0.0168533,-0.000958595,-0.000123825,0.000949783,0.000379601,-0.0880944,0.000564422,0.00115479,0.0156634,-0.0212744,0.00132565,-0.000677071,-0.00966553
23,7,0,0,0,0,0,0,231.8,254,0,0,0,0,0,0,0,231.8,766,0,0.0011124,-0.000117646,0.000516243,0.0168151,-0.0027515,0.000143204,0.00117867,0.000379601,-0.0266778,0.00109848,0.000773315,0.012192,-0.0211218,0.000333824,0.00172619,-0.00768188
23,8,0,0,0,0,0,0,231.8,254,0,0,0,0,0,0,0,231.8,766,0,0.000654641,0.000797882,0.000974007,0.0169296,-0.00233189,0.0014402,0.00117867,-0.00011631,0.0013221,0.000907745,0.000811462,0.0161593,-0.02116,0.00117306,0.00123028,-0.00897888
23,9,0,0,0,0,0,0,231.8,254,0,0,0,0,0,0,0,231.8,766,0,-0.00022274,-0.00019394,0.000363655,0.01548,-0.00248447,0.000143204,0.0013694,0.000112572,0.0909293,0.000297394,0.000201111,0.0177996,-0.0211981,0.000410118,0.000848808,-0.00855927
24,0,0,0,0,0,0,0,231.8,254,0,0,0,0,0,0,0,231.8,766,0,0.000730935,0.000340118,0.000287361,0.0161285,-0.00465885,0.00113502,0.00159828,0.000570335,-0.0385796,0.00109848,-0.0002948,0.0192874,-0.0208929,0.00170712,0.00107769,-0.00749115
24,1,0,0,0,0,0,0,231.8,254,0,0,0,0,0,0,0,231.8,766,0,0.00137943,0.000569,0.000516243,0.0173111,-0.00298038,0.000105057,0.00144569,0.000608482,-0.0135934,-0.000122223,0.00168884,0.0184481,-0.0220374,0.00151638,0.00142101,-0.00833038
24,2,0,0,0,0,0,0,231.8,254,0,0,0,0,0,0,0,231.8,766,0,0.000425759,-0.000270233,9.66262e-05,0.0159378,-0.00324741,-0.000161972,0.000186844,-0.000650368,0.0976814,-0.000427399,0.000620727,0.014519,-0.0216177,-9.49856e-06,-0.00056263,-0.00909332
24,3,0,0,0,0,0,0,231.8,254,0,0,0,0,0,0,0,231.8,766,0,-0.000413475,0.000492706,0.00131733,0.0162048,0.0035046,0.000600967,0.00060646,0.000303307,-0.0370919,0.00117477,0.00187958,0.0164264,-0.0204733,0.000791588,0.00210766,-0.00829224
24,4,0,0,0,0,0,0,231.8,254,0,0,0,0,0,0,0,231.8,766,0,0.0018372,0.00018753,0.000706978,0.0164337,0.00438198,0.00113502,0.00167458,0.000799217,-0.0136315,0.000602569,0.000658874,0.0144427,-0.0207022,0.00136379,0.00123028,-0.00756744
24,5,0,0,0,0,0,0,231.8,254,0,0,0,0,0,0,0,231.8,766,0,0.000654641,-0.00133835,-9.41086e-05,0.0155563,0.0028561,0.000181351,0.000644607,-0.000383339,0.113016,-0.000274811,0.000544433,0.0104754,-0.0208548,0.000600853,0.000391045,-0.00916962
24,6,0,0,0,0,0,0,231.8,254,0,0,0,0,0,0,0,231.8,766,0,0.000769082,0.00095047,-0.000399284,0.0157852,0.00171169,0.000677261,0.000224991,0.000379601,-0.035299,-0.00054184,-2.77711e-05,0.010094,-0.0210455,0.000677147,0.000925102,-0.00859741
24,7,0,0,0,0,0,0,231.8,254,0,0,0,0,0,0,0,231.8,766,0,0.0011124,0.000569,0.00093586,0.0163574,0.00117764,0.000982437,0.0013694,0.000722923,-0.0141656,0.000755157,0.000697021,0.010361,-0.0211218,0.000639,0.000238457,-0.00783447
24,8,0,0,0,0,0,0,231.8,254,0,0,0,0,0,0,0,231.8,766,0,0.000311318,-3.20468e-06,9.66262e-05,0.0157852,0.00327572,-0.000123825,0.000377579,-0.000421486,0.117251,0.000297394,0.00115479,0.00772884,-0.0215414,0.000677147,0.000772514,-0.00936035
24,9,0,0,0,0,0,0,231.8,254,0,0,0,0,0,0,0,231.8,766,0,0.00187534,0.000836029,0.000401802,0.0165481,0.00430569,0.00147835,0.000835342,0.000341454,-0.0327813,0.000755157,0.00119293,0.00925472,-0.0218085,0.00132565,0.00149731,-0.00852112
25,0,0,0,0,0,0,0,231.8,254,0,0,0,0,0,0,0,231.8,766,0,0.000425759,-0.000117646,0.000706978,0.0159378,0.00621304,0.000906143,0.0013694,0.000608482,-0.0652062,-0.000389252,0.000811462,0.0115054,-0.0202063,0.000410118,0.000352898,-0.0103522
25,1,0,0,0,0,0,0,231.8,254,0,0,0,0,0,0,0,231.8,766,0,0.000502053,0.000683441,0.00120289,0.0157852,0.00590786,0.000715408,0.000835342,0.000455895,-0.0134789,-0.000389252,0.000353699,0.00772884,-0.019863,0.00155453,0.00180248,-0.00833038
25,2,0,0,0,0,0,0,231.8,254,0,0,0,0,0,0,0,231.8,766,0,0.0011887,-7.94986e-05,0.00101215,0.0168914,0.00606045,-0.000161972,0.00098793,0.000837364,0.0510276,0.00117477,0.00107849,0.00738552,-0.0213126,0.000867882,0.0010014,-0.00783447
25,3,0,0,0,0,0,0,231.8,254,0,0,0,0,0,0,0,231.8,766,0,0.0005402,0.000759735,0.00139362,0.0163192,0.00670895,0.000906143,0.00049202,-0.000230751,0.0510658,0.000678863,0.000925903,0.00688961,-0.0210074,0.000677147,-0.000410042,-0.00840668
25,4,0,0,0,0,0,0,231.8,254,0,0,0,0,0,0,0,231.8,766,0,0.000807228,-0.000613556,0.00017292,0.0159759,0.00689968,0.000295792,0.000377579,0.000341454,-0.0719582,0.000182953,1.03759e-05,0.0153964,-0.0218466,0.000448265,0.00142101,-0.00894073
25,5,0,0,0,0,0,0,231.8,254,0,0,0,0,0,0,0,231.8,766,0,0.000883522,0.000645294,0.000974007,0.017044,0.00922665,0.00113502,0.00167458,0.000951805,0.0671638,0.0020903,0.000391846,0.0198596,-0.0195959,0.00147823,0.00123028,-0.00710968
25,6,0,0,0,0,0,0,231.8,254,0,0,0,0,0,0,0,231.8,766,0,0.000616494,-0.00030838,-9.41086e-05,0.0155182,0.00487789,0.00121132,0.000682754,0.000608482,0.0467933,-4.59291e-05,0.000429993,0.0138705,-0.0228384,0.000562706,0.00210766,-0.00943665
25,7,0,0,0,0,0,0,231.8,254,0,0,0,0,0,0,0,231.8,766,0,0.000807228,0.000645294,0.000668831,0.0162048,0.00632748,0.000639114,0.00106422,0.000455895,-0.0665414,0.000106659,0.000544433,0.0160449,-0.0205496,0.000333824,0.00138287,-0.00813965
25,8,0,0,0,0,0,0,231.8,254,0,0,0,0,0,0,0,231.8,766,0,0.000769082,0.000797882,0.000630684,0.0158615,0.00766262,0.000486526,0.000759048,0.00114254,0.0742591,0.000793304,-2.77711e-05,0.0186007,-0.021427,0.00025753,0.000619926,-0.00890259
25,9,0,0,0,0,0,0,231.8,254,0,0,0,0,0,0,0,231.8,766,0,0.000425759,0.000569,0.000134773,0.0160904,0.00663265,0.000333939,0.000453873,0.00133327,0.0607169,0.000144806,0.000506287,0.0199359,-0.0221136,0.000448265,0.000314751,-0.00859741
26,0,0,0,0,0,0,0,231.8,254,0,0,0,0,0,0,0,231.8,766,0,0.0018372,0.000340118,0.000783272,0.0162429,0.00785336,0.00124947,0.00148384,-0.000192604,-0.069822,0.000106659,0.000124817,0.0203555,-0.0207404,0.00151638,0.000124016,-0.00821594
26,1,0,0,0,0,0,0,231.8,254,0,0,0,0,0,0,0,231.8,766,0,8.2436e-05,0.000645294,0.000630684,0.01651,0.00678524,0.000295792,0.00060646,0.000379601,0.0738776,6.85118e-05,0.00119293,0.0214618,-0.0211981,0.000448265,0.00107769,-0.00970367
26,2,0,0,0,0,0,0,231.8,254,0,0,0,0,0,0,0,231.8,766,0,-0.00022274,7.30893e-05,9.66262e-05,0.0157089,0.00712856,0.000677261,0.00060646,-0.000459633,0.0683082,0.000259247,-0.000332947,0.0175326,-0.0207404,0.000867882,0.000848808,-0.00844482
26,3,0,0,0,0,0,0,231.8,254,0,0,0,0,0,0,0,231.8,766,0,0.000387612,0.000340118,0.00101215,0.0162811,0.00842556,0.00105873,0.000453873,0.000303307,-0.0871026,0.000793304,-0.000409241,0.0172656,-0.0206641,0.0012112,0.00168804,-0.00844482
26,4,0,0,0,0,0,0,231.8,254,0,0,0,0,0,0,0,231.8,766,0,0.000845375,0.000492706,0.00055439,0.0165863,0.00571712,0.000867996,0.000797195,0.000608482,-0.024923,0.000907745,0.000849609,0.0178378,-0.02116,0.00124935,9.57493e-06,-0.00829224
26,5,0,0,0,0,0,0,231.8,254,0,0,0,0,0,0,0,231.8,766,0,6.14207e-06,0.000569,0.000668831,0.016777,0.00884518,-8.56782e-05,0.00102608,0.000913658,0.000826187,0.000945892,0.000391846,0.0174563,-0.0213889,0.00136379,9.57493e-06,-0.00726227
26,6,0,0,0,0,0,0,231.8,254,0,0,0,0,0,0,0,231.8,766,0,-0.000337181,-0.000766144,0.000401802,0.0163574,0.00751003,0.000791702,0.00011055,0.000722923,0.0915015,-0.00103775,-0.000142212,0.0172656,-0.0214651,-0.000123939,0.00115398,-0.00852112
26,7,0,0,0,0,0,0,231.8,254,0,0,0,0,0,0,0,231.8,766,0,0.000349465,0.000569,0.000783272,0.0161285,0.00880703,0.00113502,0.000873489,0.000989952,-0.0387322,0.00128921,0.00126923,0.0194018,-0.0207404,0.00189785,0.000505486,-0.00920776
26,8,0,0,0,0,0,0,231.8,254,0,0,0,0,0,0,0,231.8,766,0,0.000311318,0.000530853,-1.78147e-05,0.0160904,0.00674709,0.000410232,0.000682754,0.000799217,-0.0131738,0.000526275,4.85228e-05,0.0181048,-0.0218085,0.000371971,0.00115398,-0.00844482
26,9,0,0,0,0,0,0,231.8,254,0,0,0,0,0,0,0,231.8,766,0,-3.20049e-05,0.000874176,-0.00070446,0.0158996,0.00518307,0.00102058,0.00114052,0.00118069,0.097338,3.03648e-05,0.000162964,0.0160449,-0.0211981,0.00155453,0.000352898,-0.00947479
27,0,0,0,0,0,0,0,231.8,254,0,0,0,0,0,0,0,231.8,766,0,0.00160831,0.00095047,0.000974007,0.0169677,0.00434383,0.00140205,0.00102608,0.000494041,-0.0362527,0.000564422,-0.000104065,0.0169223,-0.020397,0.00117306,0.0010014,-0.00779633
27,1,0,0,0,0,0,0,231.8,254,0,0,0,0,0,0,0,231.8,766,0,-0.000489769,0.000378265,5.84793e-05,0.0162048,-0.00294224,0.000791702,-0.000461655,0.000341454,-0.0134789,0.000259247,-2.77711e-05,0.0124209,-0.0220374,0.000448265,0.00058178,-0.00825409
27,2,0,0,0,0,0,0,231.8,254,0,0,0,0,0,0,0,231.8,766,0,0.000807228,0.00018753,-0.000475578,0.0161666,-0.00107304,0.000219498,0.000224991,7.44248e-05,0.11336,0.00117477,-0.0002948,0.0146334,-0.0214651,0.00102047,0.000352898,-0.00813965
27,3,0,0,0,0,0,0,231.8,254,0,0,0,0,0,0,0,231.8,766,0,0.000578347,0.000988617,0.00124104,0.0162811,0.00110134,0.000791702,0.00011055,0.000112572,-0.035032,0.000907745,0.000124817,0.0141375,-0.0212363,0.000448265,0.00130657,-0.00836853
27,4,0,0,0,0,0,0,231.8,254,0,0,0,0,0,0,0,231.8,766,0,0.000425759,0.000225677,0.000287361,0.0167389,-0.000424538,-0.000810471,0.00102608,3.62778e-05,-0.0138223,-4.59291e-05,0.000239258,0.013489,-0.0207022,-0.000276527,0.00203136,-0.00775818
27,5,0,0,0,0,0,0,231.8,254,0,0,0,0,0,0,0,231.8,766,0,0.000387612,-3.20468e-06,-0.00032299,0.0161666,-0.00130192,0.00102058,0.000682754,0.000989952,0.116984,0.0015181,-0.0002948,0.0141375,-0.0210837,0.00117306,0.000810661,-0.00772003
27,6,0,0,0,0,0,0,231.8,254,0,0,0,0,0,0,0,231.8,766,0,-0.000489769,0.0012175,0.000706978,0.01651,0.00171169,0.00136391,0.000720901,0.000837364,-0.0320184,-0.000847016,-0.000485535,0.0152056,-0.0209692,0.00155453,0.00142101,-0.00737671
27,7,0,0,0,0,0,0,231.8,254,0,0,0,0,0,0,0,231.8,766,0,0.000997963,-0.000499115,-0.000132256,0.0160904,0.00140652,0.00056282,0.000911636,0.000532188,-0.0650155,0.000640716,-0.00117218,0.0177615,-0.0208929,0.000944176,0.00058178,-0.0081015
27,8,0,0,0,0,0,0,231.8,254,0,0,0,0,0,0,0,231.8,766,0,0.000502053,0.000492706,5.84793e-05,0.0161285,0.00117764,0.00102058,0.00060646,-7.81631e-05,-0.0124871,0.000945892,-0.000180359,0.0174182,-0.0207785,0.000562706,0.000238457,-0.00775818
27,9,0,0,0,0,0,0,231.8,254,0,0,0,0,0,0,0,231.8,766,0,0.000921669,-0.000232087,-0.000246697,0.0173492,0.000338402,0.000372085,0.000759048,0.000379601,0.0504173,0.000526275,-0.000371094,0.0178759,-0.0219611,0.000753441,0.000848808,-0.00768188
28,0,0,0,0,0,0,0,231.8,254,0,0,0,0,0,0,0,231.8,766,0,0.000311318,-0.000422821,0.000325508,0.0162048,0.00125393,0.000333939,0.000148697,-7.81631e-05,0.0501121,0.000793304,-0.000409241,0.0190966,-0.0212744,0.000333824,-0.000219307,-0.00798706
28,1,0,0,0,0,0,0,231.8,254,0,0,0,0,0,0,0,231.8,766,0,0.000235024,0.000797882,0.00112659,0.0161666,0.00392422,0.000791702,0.000873489,0.000799217,-0.0693642,0.00128921,0.00138367,0.0125354,-0.0208548,0.000906029,0.00138287,-0.00806335
28,2,0,0,0,0,0,0,231.8,254,0,0,0,0,0,0,0,231.8,766,0,0.000845375,0.00117935,0.000363655,0.017044,0.00751003,0.00166908,0.00110237,0.000494041,0.0669349,0.0014418,0.000506287,0.00921657,-0.0213889,0.00174526,0.00138287,-0.00840668
28,3,0,0,0,0,0,0,231.8,254,0,0,0,0,0,0,0,231.8,766,0,0.000120583,-0.000384674,0.000325508,0.0160522,0.00567898,0.000524673,-0.000957565,-0.000459633,0.0472892,-0.00134293,0.000773315,0.0134509,-0.0208929,0.000639,0.00058178,-0.00825409
28,4,0,0,0,0,0,0,231.8,254,0,0,0,0,0,0,0,231.8,766,0,0.00126499,0.000721588,0.000287361,0.0145645,0.00323757,0.000143204,0.000453873,-0.000230751,-0.0670754,0.0002211,-0.000599976,0.0116961,-0.0213889,0.000562706,0.000886955,-0.00905518
28,5,0,0,0,0,0,0,231.8,254,0,0,0,0,0,0,0,231.8,766,0,0.000959816,0.00117935,0.00127918,0.0168533,0.00552639,0.000295792,0.00163643,0.00106625,0.0744117,0.00136551,-0.000523682,0.00765255,-0.0208548,0.000181236,0.00069622,-0.00794891
28,6,0,0,0,0,0,0,231.8,254,0,0,0,0,0,0,0,231.8,766,0,0.000845375,0.000988617,0.00150806,0.0156707,0.00861629,0.000829849,0.000415726,0.000112572,0.0604881,0.00136551,0.000124817,0.00872066,-0.0208167,0.000982323,0.00134472,-0.00798706
28,7,0,0,0,0,0,0,231.8,254,0,0,0,0,0,0,0,231.8,766,0,0.00126499,0.000301971,0.000401802,0.0160141,0.00953182,0.000486526,0.000415726,0.00076107,-0.070089,0.000907745,-6.59181e-05,0.0135653,-0.021427,0.00102047,0.00069622,-0.00901703
28,8,0,0,0,0,0,0,231.8,254,0,0,0,0,0,0,0,231.8,766,0,0.000997963,0.000683441,0.000821419,0.0167389,0.00995144,0.00102058,0.000568314,0.000455895,0.0755561,0.0014418,0.000773315,0.0135653,-0.0200537,0.00166897,-0.000219307,-0.0075293
28,9,0,0,0,0,0,0,231.8,254,0,0,0,0,0,0,0,231.8,766,0,-0.00071865,-0.00068985,9.66262e-05,0.0159759,0.009837,0.000257645,0.00102608,0.000455895,0.067736,-4.59291e-05,-0.00140106,0.00887325,-0.0215414,0.000524559,0.000505486,-0.00806335
29,0,0,0,0,0,0,0,231.8,254,0,0,0,0,0,0,0,231.8,766,0,0.000845375,0.000454559,0.000478096,0.0165481,0.00716671,0.000791702,-0.000194626,0.000951805,-0.0877129,0.000793304,0.000925903,0.0082629,-0.02116,0.000944176,0.0010014,-0.00844482
29,1,0,0,0,0,0,0,231.8,254,0,0,0,0,0,0,0,231.8,766,0,-7.01519e-05,0.000683441,0.000325508,0.01651,0.00815853,0.00128761,0.000453873,0.00076107,-0.02519,0.000755157,0.000201111,0.0113528,-0.021427,0.000944176,0.00126843,-0.00855927
29,2,0,0,0,0,0,0,231.8,254,0,0,0,0,0,0,0,231.8,766,0,0.00015873,0.000607147,-5.59617e-05,0.0154419,0.00171169,0.000257645,0.000682754,0.000188866,0.00139839,0.000144806,8.66698e-05,0.013489,-0.02116,0.000295677,0.000429192,-0.0093222
29,3,0,0,0,0,0,0,231.8,254,0,0,0,0,0,0,0,231.8,766,0,-0.00022274,-0.000270233,0.000134773,0.0143356,0.00182613,0.000753555,0.000835342,-1.86916e-06,0.0909675,0.000297394,-0.000905151,0.0150149,-0.0210837,0.000982323,-0.000600777,-0.00798706
29,4,0,0,0,0,0,0,231.8,254,0,0,0,0,0,0,0,231.8,766,0,-3.20049e-05,0.000836029,-0.00032299,0.0167007,0.00323757,0.000105057,0.000377579,0.000799217,-0.0387322,0.00109848,0.00058258,0.0164264,-0.0207785,-0.000123939,0.00069622,-0.00875
29,5,0,0,0,0,0,0,231.8,254,0,0,0,0,0,0,0,231.8,766,0,0.00015873,0.000645294,0.000211067,0.0169296,0.00373348,0.00159279,0.00117867,0.000379601,-0.0133263,0.000259247,0.000315552,0.015816,-0.0201682,0.00136379,0.00130657,-0.00855927
29,6,0,0,0,0,0,0,231.8,254,0,0,0,0,0,0,0,231.8,766,0,-0.000108299,0.00110306,0.000745125,0.0156707,0.000719872,0.00094429,0.000873489,0.000570335,0.0970329,0.000411835,-0.000409241,0.0152056,-0.0218848,0.000448265,0.00126843,-0.00741486
29,7,0,0,0,0,0,0,231.8,254,0,0,0,0,0,0,0,231.8,766,0,8.2436e-05,0.000492706,0.000592537,0.0157089,0.000376549,0.000333939,0.000415726,0.000837364,-0.0365578,0.000488129,0.000162964,0.013489,-0.0207022,0.0012875,0.00115398,-0.00829224
29,8,0,0,0,0,0,0,231.8,254,0,0,0,0,0,0,0,231.8,766,0,0.00130314,0.000912323,0.000668831,0.0170822,0.0053738,0.000219498,0.000797195,0.000570335,-0.0123345,0.00167068,0.00119293,0.0140612,-0.0216177,0.000867882,-0.000753365,-0.00813965
29,9,0,0,0,0,0,0,231.8,254,0,0,0,0,0,0,0,231.8,766,0,-0.000108299,0.00106491,0.000325508,0.0163192,0.00586971,0.000753555,0.000224991,0.000341454,0.11294,0.000335541,0.00046814,0.0159304,-0.0218085,-0.000352821,0.00153545,-0.00848297
30,0,0,0,0,0,0,0,231.8,254,0,0,0,0,0,0,0,231.8,766,0,0.000807228,0.00125565,0.000783272,0.0159378,0.00426754,0.00109688,0.00106422,0.000150719,-0.0350701,0.000488129,0.000391846,0.0171893,-0.0203589,0.00147823,0.000658073,-0.00798706
30,1,0,0,0,0,0,0,231.8,254,0,0,0,0,0,0,0,231.8,766,0,-0.000680503,0.000721588,0.00124104,0.0160141,0.00411495,0.000753555,0.000377579,0.000570335,-0.0154244,0.000678863,0.00107849,0.0153964,-0.0216177,0.00132565,0.00069622,-0.00901703
30,2,0,0,0,0,0,0,231.8,254,0,0,0,0,0,0,0,231.8,766,0,0.0005402,0.000378265,0.000249214,0.0173874,0.00651821,-0.000123825,0.00133125,0.00076107,0.117747,0.0014418,0.00096405,0.0136416,-0.0211218,6.67954e-05,0.00149731,-0.00840668
30,3,0,0,0,0,0,0,231.8,254,0,0,0,0,0,0,0,231.8,766,0,0.000845375,7.30893e-05,0.000363655,0.0153656,0.00506863,0.00102058,0.00133125,0.000112572,-0.0317132,0.00071701,-0.000790711,0.0111621,-0.0213889,0.000410118,9.57493e-06,-0.00714783
30,4,0,0,0,0,0,0,231.8,254,0,0,0,0,0,0,0,231.8,766,0,8.2436e-05,0.000530853,0.000516243,0.0163192,0.00567898,0.000486526,0.000759048,0.000532188,-0.0641381,0.000640716,0.000162964,0.0114672,-0.0210455,0.000219383,9.57493e-06,-0.00852112
30,5,0,0,0,0,0,0,231.8,254,0,0,0,0,0,0,0,231.8,766,0,0.000349465,3.49423e-05,0.00139362,0.0168151,0.00625118,0.000715408,0.000453873,0.00076107,-0.0136315,0.000488129,0.00145996,0.0141375,-0.0208548,0.000944176,0.00145916,-0.00970367
30,6,0,0,0,0,0,0,231.8,254,0,0,0,0,0,0,0,231.8,766,0,0.000769082,-0.000422821,0.000287361,0.0161285,0.00281796,0.000715408,0.000186844,0.000303307,0.051638,0.000831451,0.00058258,0.0149768,-0.0218085,-0.000200233,0.00164989,-0.00806335
30,7,0,0,0,0,0,0,231.8,254,0,0,0,0,0,0,0,231.8,766,0,0.000654641,0.0011412,0.000706978,0.0162429,0.000796166,0.00216499,0.000797195,0.000150719,0.0515235,0.000793304,0.000811462,0.0159304,-0.0207022,0.00151638,0.00130657,-0.00760559
30,8,0,0,0,0,0,0,231.8,254,0,0,0,0,0,0,0,231.8,766,0,0.000654641,-0.000270233,0.00116474,0.0166244,0.0028561,0.000219498,-0.000385361,-0.000154457,-0.070852,-0.000312958,-0.000104065,0.0165026,-0.021694,0.000867882,0.000772514,-0.00821594
30,9,0,0,0,0,0,0,231.8,254,0,0,0,0,0,0,0,231.8,766,0,0.00130314,7.30893e-05,0.000516243,0.0169677,0.00361904,0.00132576,0.00186531,0.00129513,0.0662864,0.000907745,0.00214661,0.0165408,-0.0203589,0.001936,0.00214581,-0.00928406
31,0,0,0,0,0,0,0,231.8,254,0,0,0,0,0,0,0,231.8,766,0,0.00122685,0.00125565,0.00124104,0.0166244,0.00312313,0.00140205,0.000835342,0.00137142,0.0476707,0.000984039,0.000162964,0.0152056,-0.0215033,0.00140194,0.000734367,-0.00772003
31,1,0,0,0,0,0,0,231.8,254,0,0,0,0,0,0,0,231.8,766,0,0.000235024,0.000683441,0.000478096,0.0161285,0.000872459,0.000333939,0.00102608,0.000150719,-0.0665795,0.00140366,0.000620727,0.0164264,-0.0207404,0.000867882,0.000276604,-0.00836853
31,2,0,0,0,0,0,0,231.8,254,0,0,0,0,0,0,0,231.8,766,0,0.000616494,0.000759735,-5.59617e-05,0.0158996,0.00102505,-0.000276413,0.00114052,0.000570335,0.0748313,0.00071701,-0.000218506,0.0145572,-0.0219611,0.000295677,4.77219e-05,-0.00863556
31,3,0,0,0,0,0,0,231.8,254,0,0,0,0,0,0,0,231.8,766,0,0.000387612,3.49423e-05,0.00127918,0.0171203,-0.000195656,0.00117317,0.000949783,0.000684776,0.0600684,0.000640716,0.00046814,0.0164264,-0.0218466,0.00140194,0.00069622,-0.00955109
31,4,0,0,0,0,0,0,231.8,254,0,0,0,0,0,0,0,231.8,766,0,0.000578347,0.000530853,0.00055439,0.0158615,-0.00195042,0.000219498,0.00121681,0.00148586,-0.0684869,0.00071701,0.00104034,0.0195544,-0.0207022,-0.000390968,0.00195507,-0.00756744
31,5,0,0,0,0,0,0,231.8,254,0,0,0,0,0,0,0,231.8,766,0,0.00141758,0.000797882,0.000859566,0.0160141,0.000796166,0.00132576,0.00171272,-0.000230751,0.0757087,0.00117477,0.000925903,0.0195544,-0.0208548,0.000600853,-0.000791511,-0.00955109
31,6,0,0,0,0,0,0,231.8,254,0,0,0,0,0,0,0,231.8,766,0,-7.01519e-05,-0.000117646,-0.00020855,0.0158615,0.0016354,0.00056282,0.000873489,-0.000154457,0.0674689,0.000335541,-0.000752564,0.0144809,-0.0206259,0.000791588,0.000810661,-0.00962738
31,7,0,0,0,0,0,0,231.8,254,0,0,0,0,0,0,0,231.8,766,0,0.00141758,0.000340118,0.0010503,0.0178451,0.00266537,0.000410232,0.00205605,0.000875511,-0.0861489,0.000526275,0.00214661,0.014786,-0.0213889,0.00140194,0.000505486,-0.00848297
31,8,0,0,0,0,0,0,231.8,254,0,0,0,0,0,0,0,231.8,766,0,0.00137943,-0.000117646,0.000516243,0.0163192,0.00049099,0.000486526,0.000720901,7.44248e-05,-0.0252663,0.000984039,0.00104034,0.0124972,-0.0208167,-0.00023838,-0.000448189,-0.00855927
31,9,0,0,0,0,0,0,231.8,254,0,0,0,0,0,0,0,231.8,766,0,-0.000184593,0.000530853,0.000706978,0.0153274,-0.00286594,0.00094429,0.000720901,3.62778e-05,0.00109322,0.000144806,0.00107849,0.0113147,-0.0208929,0.000639,0.0010014,-0.0093222
32,0,0,0,0,0,0,0,231.8,254,0,0,0,0,0,0,0,231.8,766,0,0.00107426,0.000492706,0.00135548,0.0167007,0.00110134,0.000219498,0.00102608,0.000799217,0.0912345,0.00109848,0.000620727,0.0135272,-0.0215033,0.00166897,0.00138287,-0.00882629
32,1,0,0,0,0,0,0,231.8,254,0,0,0,0,0,0,0,231.8,766,0,0.0011124,0.00018753,0.000401802,0.01651,0.00232204,0.000715408,0.000339432,-0.00099369,-0.0377404,0.00102219,0.000925903,0.0101702,-0.0208929,0.000639,-0.000143013,-0.00913147
32,2,0,0,0,0,0,0,231.8,254,0,0,0,0,0,0,0,231.8,766,0,0.00015873,0.000797882,-5.59617e-05,0.0155563,-0.000157509,0.00102058,0.0013694,0.000684776,-0.0108849,0.000182953,0.000773315,0.0107806,-0.0215796,0.000639,0.000886955,-0.00775818
32,3,0,0,0,0,0,0,231.8,254,0,0,0,0,0,0,0,231.8,766,0,0.0011124,0.00156082,0.00173695,0.0163574,0.000643578,0.00147835,0.00228493,0.00121883,0.0974906,0.00113663,0.000506287,0.0172274,-0.0195197,0.00147823,0.00138287,-0.00756744
32,4,0,0,0,0,0,0,231.8,254,0,0,0,0,0,0,0,231.8,766,0,0.000196877,0.000492706,0.000516243,0.01651,0.00308498,-0.000772324,0.000835342,0.000227013,-0.0410592,0.000259247,0.000277405,0.0203173,-0.0217703,0.000295677,0.00107769,-0.00928406
32,5,0,0,0,0,0,0,231.8,254,0,0,0,0,0,0,0,231.8,766,0,0.000463906,0.000301971,2.03323e-05,0.0158233,0.00224575,0.000181351,-0.000499802,-0.000307045,-0.0111138,0.000907745,0.00058258,0.0216906,-0.0226096,-0.000276527,0.000391045,-0.00977997
32,6,0,0,0,0,0,0,231.8,254,0,0,0,0,0,0,0,231.8,766,0,0.000654641,0.000912323,0.000668831,0.0163192,0.00247463,0.00174538,0.000835342,0.000227013,0.111605,0.00125107,0.00130737,0.0208895,-0.0201682,0.0018597,0.00111584,-0.00825409
32,7,0,0,0,0,0,0,231.8,254,0,0,0,0,0,0,0,231.8,766,0,0.000997963,0.000530853,0.000859566,0.0171585,0.0022076,0.000906143,0.00163643,0.000341454,-0.0346124,0.000259247,0.000429993,0.0163119,-0.0206259,0.00113491,0.00111584,-0.0103522
32,8,0,0,0,0,0,0,231.8,254,0,0,0,0,0,0,0,231.8,766,0,0.00015873,-0.000575409,0.000706978,0.0163574,0.00403866,-4.75312e-05,0.00133125,0.000684776,-0.0136697,-0.000503693,0.000506287,0.0132602,-0.0213889,0.0012875,0.000772514,-0.00844482
32,9,0,0,0,0,0,0,231.8,254,0,0,0,0,0,0,0,231.8,766,0,0.0011124,0.000645294,0.000974007,0.0166626,0.00567898,0.00094429,0.00117867,0.00148586,0.117327,0.00109848,0.000887756,0.00929287,-0.0213126,0.00136379,0.00123028,-0.00806335
33,0,0,0,0,0,0,0,231.8,254,0,0,0,0,0,0,0,231.8,766,0,0.000692788,0.000454559,0.0010503,0.0164337,0.00380978,0.000867996,0.000797195,0.000455895,-0.0329339,0.0002211,-0.0002948,0.00933102,-0.0211218,0.000143089,0.000391045,-0.00913147
33,1,0,0,0,0,0,0,231.8,254,0,0,0,0,0,0,0,231.8,766,0,0.000235024,-4.13517e-05,0.000134773,0.0160522,0.00461086,0.000867996,0.000911636,0.00026516,-0.0641763,0.000526275,-0.000981445,0.0126498,-0.0217703,0.000829735,-0.000219307,-0.00928406
33,2,0,0,0,0,0,0,231.8,254,0,0,0,0,0,0,0,231.8,766,0,0.000997963,0.000645294,0.00131733,0.0163955,0.00800594,0.00117317,0.000682754,0.000379601,-0.0165688,0.000907745,0.00126923,0.0179522,-0.0205496,0.000600853,0.00123028,-0.00920776
33,3,0,0,0,0,0,0,231.8,254,0,0,0,0,0,0,0,231.8,766,0,0.000959816,0.000111236,0.000745125,0.0158996,0.00972256,0.000486526,0.000453873,0.000837364,0.0188316,-4.59291e-05,0.00134552,0.0135653,-0.0219229,0.000715294,0.000848808,-0.00844482
33,4,0,0,0,0,0,0,231.8,254,0,0,0,0,0,0,0,231.8,766,0,0.00164646,0.000988617,0.000974007,0.0152511,0.00911221,0.00159279,0.00144569,0.000455895,0.0258125,0.00117477,0.00046814,0.0116961,-0.0210074,0.00155453,0.00126843,-0.00882629
33,5,0,0,0,0,0,0,231.8,254,0,0,0,0,0,0,0,231.8,766,0,0.00015873,0.00018753,0.000821419,0.0157852,0.00953182,-0.000619736,0.00121681,0.000303307,-0.0509011,0.000755157,0.00119293,0.0126117,-0.0210074,0.000562706,0.00168804,-0.00806335
33,6,0,0,0,0,0,0,231.8,254,0,0,0,0,0,0,0,231.8,766,0,-0.00022274,3.49423e-05,0.000249214,0.0165481,0.0116299,-0.000657883,0.000530167,0.00026516,0.0361884,0.000907745,0.000162964,0.0125354,-0.0216559,0.000333824,-0.000295601,-0.00764374
33,7,0,0,0,0,0,0,231.8,254,0,0,0,0,0,0,0,231.8,766,0,0.00145573,0.000645294,5.84793e-05,0.0168914,0.0108288,0.000906143,0.00175087,0.000608482,0.0281776,0.000907745,0.00107849,0.0191348,-0.021427,0.000982323,0.00168804,-0.00783447
33,8,0,0,0,0,0,0,231.8,254,0,0,0,0,0,0,0,231.8,766,0,0.000616494,0.000683441,0.00112659,0.0160904,0.00888332,0.00128761,0.00102608,0.000150719,-0.0419366,0.000678863,0.00153625,0.0165026,-0.0203589,0.00151638,0.000276604,-0.00833038
33,9,0,0,0,0,0,0,231.8,254,0,0,0,0,0,0,0,231.8,766,0,0.000692788,0.00110306,0.00173695,0.0156326,0.00934109,0.000829849,0.000263138,0.000989952,0.0472511,0.00113663,0.000658874,0.0117343,-0.0204352,0.000867882,0.00123028,-0.00806335
34,0,0,0,0,0,0,0,231.8,254,0,0,0,0,0,0,0,231.8,766,0,0.000425759,0.000225677,0.000363655,0.0159759,0.00567898,0.000105057,0.000301285,0.000455895,0.0424827,3.03648e-05,0.000925903,0.00940731,-0.0220374,0.00105862,-0.000753365,-0.00916962
34,1,0,0,0,0,0,0,231.8,254,0,0,0,0,0,0,0,231.8,766,0,0.00122685,-0.000232087,-0.000361137,0.01548,0.00880703,0.000295792,0.00106422,0.000494041,-0.0441491,0.00132736,0.000201111,0.0120776,-0.021694,0.000982323,4.77219e-05,-0.00886444
34,2,0,0,0,0,0,0,231.8,254,0,0,0,0,0,0,0,231.8,766,0,0.000730935,0.00125565,0.000821419,0.0153656,0.00770077,0.000715408,0.000263138,0.000379601,0.0536216,0.000297394,0.00138367,0.0146716,-0.0223807,-8.57925e-05,0.00107769,-0.00970367
34,3,0,0,0,0,0,0,231.8,254,0,0,0,0,0,0,0,231.8,766,0,0.0011887,0.000225677,0.000249214,0.0155944,0.00819668,0.000105057,0.000224991,-0.00011631,0.0515998,0.000869598,0.000773315,0.0135653,-0.0213507,-9.49856e-06,-0.000143013,-0.00947479
34,4,0,0,0,0,0,0,231.8,254,0,0,0,0,0,0,0,231.8,766,0,0.000807228,0.00129379,0.00146992,0.0171585,0.00659451,0.00132576,0.000148697,0.00106625,-0.053724,0.00132736,0.00168884,0.015816,-0.02116,0.000944176,0.000238457,-0.00741486
34,5,0,0,0,0,0,0,231.8,254,0,0,0,0,0,0,0,231.8,766,0,-0.000337181,0.00125565,0.000325508,0.0163192,0.00239834,0.00113502,0.000415726,0.000379601,-0.0125634,0.00132736,0.000811462,0.0182956,-0.0229147,0.0012112,0.00138287,-0.00798706
34,6,0,0,0,0,0,0,231.8,254,0,0,0,0,0,0,0,231.8,766,0,0.00130314,0.000111236,0.000783272,0.0164718,0.00323757,0.000372085,0.000720901,0.000570335,0.00280983,0.00132736,0.000239258,0.0162356,-0.0206641,2.86484e-05,0.000467339,-0.00859741
34,7,0,0,0,0,0,0,231.8,254,0,0,0,0,0,0,0,231.8,766,0,0.000692788,0.000530853,-0.000399284,0.0158615,0.00693783,0.000791702,0.000301285,-4.00161e-05,0.0592673,-0.000122223,0.000620727,0.0138705,-0.0218848,0.000867882,0.00172619,-0.00947479
34,8,0,0,0,0,0,0,231.8,254,0,0,0,0,0,0,0,231.8,766,0,0.000769082,0.000378265,0.000325508,0.0159378,0.00773891,0.00056282,0.000644607,0.000951805,-0.0164544,0.0002211,0.000429993,0.0167697,-0.0217322,0.000944176,0.000352898,-0.00848297
34,9,0,0,0,0,0,0,231.8,254,0,0,0,0,0,0,0,231.8,766,0,0.00115055,0.00163712,0.000745125,0.0168533,0.00613674,0.00185982,0.00102608,0.000722923,-0.00493401,0.00159439,0.000391846,0.0152056,-0.0210837,0.000371971,0.00145916,-0.00794891
35,0,0,0,0,0,0,0,231.8,254,0,0,0,0,0,0,0,231.8,766,0,0.000997963,-0.000117646,0.000287361,0.0165481,0.00869259,0.000333939,0.000224991,0.000608482,0.0639976,0.000602569,0.00058258,0.0110095,-0.0220374,0.000371971,-0.000410042,-0.00848297
35,1,0,0,0,0,0,0,231.8,254,0,0,0,0,0,0,0,231.8,766,0,-0.000451622,-4.13517e-05,0.000401802,0.0158233,0.00270351,0.000372085,0.000720901,0.000188866,-0.0160348,0.00136551,0.000391846,0.0102084,-0.02116,0.000600853,0.000124016,-0.00852112
35,2,0,0,0,0,0,0,231.8,254,0,0,0,0,0,0,0,231.8,766,0,0.000235024,0.000759735,0.000401802,0.0153656,0.00247463,0.00102058,0.00060646,0.00114254,-0.00203484,-0.000236664,-0.000523682,0.012955,-0.0210455,0.000448265,0.00115398,-0.00905518
35,3,0,0,0,0,0,0,231.8,254,0,0,0,0,0,0,0,231.8,766,0,0.00134129,-0.000613556,0.000974007,0.017044,0.00186428,0.00136391,0.00152199,0.00144772,0.0795234,0.000869598,0.0010022,0.0169986,-0.02116,0.00113491,0.00149731,-0.00649933
35,4,0,0,0,0,0,0,231.8,254,0,0,0,0,0,0,0,231.8,766,0,0.00107426,0.00137009,0.000516243,0.0158615,0.0028561,0.00155464,0.000835342,0.000951805,-0.0143945,0.00117477,0.000811462,0.0128787,-0.0211981,0.00163082,0.00149731,-0.00772003
35,5,0,0,0,0,0,0,231.8,254,0,0,0,0,0,0,0,231.8,766,0,0.000959816,0.000492706,0.000592537,0.0162429,0.00419125,0.000219498,0.00110237,0.000646629,-0.00451439,0.000564422,0.000697021,0.0160067,-0.0218848,0.000715294,0.00111584,-0.00859741
35,6,0,0,0,0,0,0,231.8,254,0,0,0,0,0,0,0,231.8,766,0,0.00107426,0.000225677,0.00135548,0.0168151,0.00739559,0.000982437,0.000568314,0.00106625,0.0852073,0.00117477,0.00142181,0.0195163,-0.0216177,0.000371971,0.000467339,-0.00829224
35,7,0,0,0,0,0,0,231.8,254,0,0,0,0,0,0,0,231.8,766,0,0.000845375,0.000301971,0.000249214,0.0161666,0.0029324,0.00056282,0.000644607,0.000188866,-0.0144326,0.00071701,0.0010022,0.0161975,-0.0208929,0.00102047,0.000238457,-0.00821594
35,8,0,0,0,0,0,0,231.8,254,0,0,0,0,0,0,0,231.8,766,0,0.000425759,-0.000613556,0.000439949,0.0166244,-0.00263706,0.000677261,0.00098793,0.000799217,-0.0384652,0.000602569,4.85228e-05,0.011391,-0.0221518,0.000982323,9.57493e-06,-0.00737671
35,9,0,0,0,0,0,0,231.8,254,0,0,0,0,0,0,0,231.8,766,0,0.000463906,0.00110306,0.000211067,0.0160522,-0.00134006,0.00128761,0.000530167,0.000799217,-0.00352257,0.00136551,0.000201111,0.0111621,-0.0209311,0.00159267,0.00145916,-0.00821594
36,0,0,0,0,0,0,0,231.8,254,0,0,0,0,0,0,0,231.8,766,0,0.000463906,0.000797882,0.000897713,0.0163192,0.00373348,0.00094429,-0.000156479,0.000646629,0.0305045,0.00178513,0.000544433,0.0141757,-0.0210455,0.000791588,-0.000333748,-0.00863556
36,1,0,0,0,0,0,0,231.8,254,0,0,0,0,0,0,0,231.8,766,0,0.0005402,-0.00030838,-0.000551872,0.0160141,0.00396236,0.000867996,0.00114052,0.000303307,0.0373328,0.00071701,-0.000409241,0.0148623,-0.0213889,0.000448265,0.000276604,-0.00730042
36,2,0,0,0,0,0,0,231.8,254,0,0,0,0,0,0,0,231.8,766,0,0.00145573,0.00137009,0.000439949,0.0163192,0.00155911,0.000600967,0.000759048,0.000379601,-0.0404488,0.000793304,0.000735168,0.0150912,-0.0211218,0.000944176,0.00119213,-0.00802521
36,3,0,0,0,0,0,0,231.8,254,0,0,0,0,0,0,0,231.8,766,0,0.00103611,0.00117935,0.00112659,0.0171966,0.00453457,0.00109688,0.000415726,0.00121883,0.0427497,0.00163254,0.000315552,0.0176471,-0.0199393,0.00178341,0.00180248,-0.0081015
36,4,0,0,0,0,0,0,231.8,254,0,0,0,0,0,0,0,231.8,766,0,-0.000527916,-7.94986e-05,0.000974007,0.01651,0.00430569,0.000181351,0.000224991,0.000417748,0.0341285,-4.59291e-05,4.85228e-05,0.0148242,-0.0224951,0.000448265,0.000619926,-0.00691895
36,5,0,0,0,0,0,0,231.8,254,0,0,0,0,0,0,0,231.8,766,0,0.000807228,0.000912323,2.03323e-05,0.0156326,0.00575527,0.00105873,0.000415726,0.000722923,-0.0384652,0.000564422,0.000315552,0.0131839,-0.0208167,0.000867882,0.00138287,-0.00875
36,6,0,0,0,0,0,0,231.8,254,0,0,0,0,0,0,0,231.8,766,0,0.00115055,0.00095047,0.000859566,0.0164718,0.00556454,0.000791702,0.000949783,0.000951805,0.0515617,0.000831451,0.000201111,0.0180285,-0.019863,-0.000276527,0.000772514,-0.00875
36,7,0,0,0,0,0,0,231.8,254,0,0,0,0,0,0,0,231.8,766,0,0.000196877,0.000378265,0.000859566,0.0168914,0.00541195,0.000486526,0.000301285,0.000608482,0.0446952,0.000411835,-0.000447388,0.0187915,-0.0219229,0.000829735,0.00020031,-0.00848297
36,8,0,0,0,0,0,0,231.8,254,0,0,0,0,0,0,0,231.8,766,0,0.000807228,0.000797882,0.000478096,0.0168151,0.00693783,-0.000200119,7.24029e-05,0.000379601,-0.0435006,0.000297394,0.000925903,0.0189059,-0.0205496,-0.000352821,0.00123028,-0.00905518
36,9,0,0,0,0,0,0,231.8,254,0,0,0,0,0,0,0,231.8,766,0,0.000616494,0.00152267,0.000287361,0.0171203,0.00831112,0.00170723,0.000835342,-0.00011631,0.0542319,0.0014418,0.000277405,0.0166171,-0.0204733,0.00147823,-2.8572e-05,-0.00909332
37,0,0,0,0,0,0,0,231.8,254,0,0,0,0,0,0,0,231.8,766,0,0.000769082,0.000301971,9.66262e-05,0.0156707,0.00827297,0.00056282,0.00049202,-0.00011631,0.0507606,0.000297394,4.85228e-05,0.0177615,-0.0215414,0.00025753,8.58689e-05,-0.010314
37,1,0,0,0,0,0,0,231.8,254,0,0,0,0,0,0,0,231.8,766,0,0.00130314,0.000645294,-9.41086e-05,0.0164718,0.00854,0.000448379,3.42559e-05,0.000341454,-0.0556313,0.000526275,0.000162964,0.0174182,-0.0208548,0.000982323,-0.000104866,-0.00718597
37,2,0,0,0,0,0,0,231.8,254,0,0,0,0,0,0,0,231.8,766,0,8.2436e-05,0.000607147,0.000592537,0.0151748,0.00823482,0.00056282,-0.000194626,0.000570335,-0.0143182,0.00140366,0.000201111,0.0148623,-0.0221136,0.000448265,0.00119213,-0.0075293
37,3,0,0,0,0,0,0,231.8,254,0,0,0,0,0,0,0,231.8,766,0,0.0017609,0.000492706,0.000439949,0.0165863,0.00842556,0.000600967,0.000797195,0.000989952,0.00177986,0.000678863,0.00126923,0.0150531,-0.0207785,0.00132565,0.000543633,-0.00852112
37,4,0,0,0,0,0,0,231.8,254,0,0,0,0,0,0,0,231.8,766,0,0.0005402,0.000378265,0.000478096,0.0150222,0.00514492,-4.75312e-05,0.000186844,0.000417748,0.0606788,6.85118e-05,0.00058258,0.0122683,-0.0218085,0.000524559,0.00126843,-0.00928406
37,5,0,0,0,0,0,0,231.8,254,0,0,0,0,0,0,0,231.8,766,0,0.000463906,0.00224747,0.00127918,0.0168151,0.00899776,0.00094429,0.00011055,0.00106625,-0.0209939,0.000907745,0.000887756,0.0134127,-0.02013,0.001936,0.00210766,-0.00722412
37,6,0,0,0,0,0,0,231.8,254,0,0,0,0,0,0,0,231.8,766,0,0.00103611,0.00129379,0.000859566,0.0168151,0.00937923,0.000181351,0.00148384,0.000112572,-0.00924461,0.000945892,0.000811462,0.0120013,-0.0213889,0.00144009,0.00069622,-0.0068808
37,7,0,0,0,0,0,0,231.8,254,0,0,0,0,0,0,0,231.8,766,0,8.2436e-05,3.49423e-05,0.000630684,0.0152893,0.00655636,0.000524673,0.00098793,-7.81631e-05,0.0620139,0.000793304,0.00104034,0.0101321,-0.0215796,0.000295677,-0.000295601,-0.00775818
37,8,0,0,0,0,0,0,231.8,254,0,0,0,0,0,0,0,231.8,766,0,0.00126499,0.0012175,-1.78147e-05,0.0166626,0.00709042,0.000715408,0.00121681,0.000722923,-0.0203072,-0.000236664,0.000391846,0.011391,-0.0216559,0.0012875,0.000276604,-0.00813965
37,9,0,0,0,0,0,0,231.8,254,0,0,0,0,0,0,0,231.8,766,0,0.00107426,0.00137009,0.00135548,0.0168533,0.00522121,0.000829849,0.00171272,0.000951805,-0.00615471,0.00106033,0.000124817,0.012192,-0.0219229,0.000715294,0.000314751,-0.00661377
38,0,0,0,0,0,0,0,231.8,254,0,0,0,0,0,0,0,231.8,766,0,0.00137943,0.00163712,0.000592537,0.0160141,0.00335201,0.00170723,0.00049202,-1.86916e-06,0.0784934,0.00147995,0.00107849,0.0124972,-0.0195578,0.00182156,0.00199322,-0.00783447
38,1,0,0,0,0,0,0,231.8,254,0,0,0,0,0,0,0,231.8,766,0,0.00107426,0.00156082,0.00124104,0.016777,0.00377163,-0.000200119,0.00060646,0.000570335,-0.0199258,0.000297394,0.000811462,0.00967434,-0.0207785,-4.76455e-05,-0.000257454,-0.00844482
38,2,0,0,0,0,0,0,231.8,254,0,0,0,0,0,0,0,231.8,766,0,0.000883522,0.000874176,0.000783272,0.0160904,0.000529137,0.000639114,0.000568314,-7.81631e-05,-0.00909203,0.000869598,-0.000371094,0.0113147,-0.0208929,0.000639,0.000848808,-0.00909332
38,3,0,0,0,0,0,0,231.8,254,0,0,0,0,0,0,0,231.8,766,0,0.000463906,0.000607147,0.000211067,0.0165481,-0.00286594,0.000486526,0.000301285,0.000341454,0.0831474,0.00167068,0.00142181,0.0132983,-0.0212363,0.00105862,0.000772514,-0.00871185
38,4,0,0,0,0,0,0,231.8,254,0,0,0,0,0,0,0,231.8,766,0,0.00103611,0.00152267,0.000745125,0.0166244,-0.00175968,0.00163094,0.000530167,0.000455895,-0.0182473,0.00186142,0.0015744,0.0112384,-0.02013,0.00174526,0.00119213,-0.00886444
38,5,0,0,0,0,0,0,231.8,254,0,0,0,0,0,0,0,231.8,766,0,0.000769082,0.00106491,0.000974007,0.0163574,-0.0046207,0.00121132,0.00049202,-0.000535927,-0.0435387,0.00117477,0.000773315,0.00963619,-0.0214651,0.000715294,0.000848808,-0.00794891
38,6,0,0,0,0,0,0,231.8,254,0,0,0,0,0,0,0,231.8,766,0,0.000845375,0.000301971,0.000974007,0.0165863,-0.00343815,0.000295792,0.000301285,0.000455895,-0.00707024,0.000907745,0.00046814,0.014252,-0.0209692,0.000715294,0.000314751,-0.00943665
38,7,0,0,0,0,0,0,231.8,254,0,0,0,0,0,0,0,231.8,766,0,0.000387612,0.00018753,0.00116474,0.0177688,-0.00118748,0.000791702,0.00121681,0.000608482,0.0519431,0.000984039,0.000849609,0.0193637,-0.0210074,-8.57925e-05,0.00149731,-0.00871185
38,8,0,0,0,0,0,0,231.8,254,0,0,0,0,0,0,0,231.8,766,0,0.000654641,0.00171341,0.000630684,0.0166626,-0.00240818,0.00163094,0.00152199,-0.000764809,0.1644,0.000564422,0.00119293,0.0168841,-0.0205115,0.00147823,0.000619926,-0.00840668
38,9,0,0,0,0,0,0,231.8,254,0,0,0,0,0,0,0,231.8,766,0,0.000235024,0.000111236,0.000401802,0.0158233,-0.00458256,0.000791702,0.000911636,-0.000154457,0.144793,0.000106659,4.85228e-05,0.012955,-0.02013,0.000906029,0.000238457,-0.00966553
39,0,0,0,0,0,0,0,231.8,254,0,0,0,0,0,0,0,231.8,766,0,0.000616494,0.000607147,0.000859566,0.0160522,-0.00351444,0.000906143,0.00133125,0.00125698,0.122858,0.00071701,0.000277405,0.0128787,-0.02116,0.000829735,0.00245098,-0.00726227
39,1,0,0,0,0,0,0,231.8,254,0,0,0,0,0,0,0,231.8,766,0,0.000692788,0.00144638,0.000821419,0.0165481,-0.00370518,0.00159279,0.000224991,0.000722923,-0.0192391,0.000869598,0.000697021,0.0156634,-0.0203589,0.00102047,0.00134472,-0.00756744
39,2,0,0,0,0,0,0,231.8,254,0,0,0,0,0,0,0,231.8,766,0,-0.000146446,0.000530853,0.000821419,0.0167389,-0.00137821,0.000867996,0.00102608,-0.000459633,-0.106443,0.00125107,0.000124817,0.0157016,-0.0215414,0.000944176,-2.8572e-05,-0.00848297
39,3,0,0,0,0,0,0,231.8,254,0,0,0,0,0,0,0,231.8,766,0,0.000463906,0.000530853,-0.000590019,0.0153274,-0.00221745,-8.56782e-05,0.00102608,0.000646629,0.0135673,-0.000236664,-0.000256653,0.0155108,-0.0219611,0.000562706,0.000810661,-0.00859741
39,4,0,0,0,0,0,0,231.8,254,0,0,0,0,0,0,0,231.8,766,0,-0.000375328,0.000988617,0.000974007,0.0170822,0.000681725,0.000791702,0.000415726,0.000379601,0.00269539,0.00125107,0.000735168,0.0146334,-0.0202444,0.00102047,0.000658073,-0.00909332
39,5,0,0,0,0,0,0,231.8,254,0,0,0,0,0,0,0,231.8,766,0,-0.000184593,0.000454559,-0.000284843,0.016777,0.0022076,0.000982437,0.000797195,-0.000612221,-0.0904595,0.000869598,0.000315552,0.0169604,-0.0201682,0.00102047,0.00149731,-0.0081015
39,6,0,0,0,0,0,0,231.8,254,0,0,0,0,0,0,0,231.8,766,0,0.000387612,-4.13517e-05,0.000783272,0.015213,0.000910606,0.00056282,0.00098793,0.00026516,0.0188316,-0.00016037,0.00058258,0.0146334,-0.0215414,0.00136379,-0.000638924,-0.00913147
39,7,0,0,0,0,0,0,231.8,254,0,0,0,0,0,0,0,231.8,766,0,0.000769082,0.000416412,0.000287361,0.0166244,0.0022839,0.000829849,0.00148384,0.000875511,0.0212348,0.000564422,0.000887756,0.0166552,-0.0209311,0.000906029,0.000619926,-0.00813965
39,8,0,0,0,0,0,0,231.8,254,0,0,0,0,0,0,0,231.8,766,0,-0.000146446,0.000378265,0.000134773,0.0150985,0.00487789,0.000105057,0.000263138,0.000150719,-0.0896584,0.000678863,-2.77711e-05,0.0210803,-0.022457,0.000600853,0.00115398,-0.00852112
39,9,0,0,0,0,0,0,231.8,254,0,0,0,0,0,0,0,231.8,766,0,0.000959816,0.000797882,0.00124104,0.0155563,0.00808224,0.000867996,0.00102608,0.000341454,-0.0415932,0.00189957,0.00195587,0.0230639,-0.0206641,0.000867882,0.000162163,-0.00966553
40,0,0,0,0,0,0,0,231.8,254,0,0,0,0,0,0,0,231.8,766,0,0.000311318,0.00140823,0.000897713,0.0168151,0.00548824,0.00105873,0.00110237,0.000989952,-0.0219857,0.00140366,0.00153625,0.022034,-0.0224188,0.000944176,0.00115398,-0.00791077
40,1,0,0,0,0,0,0,231.8,254,0,0,0,0,0,0,0,231.8,766,0,0.00157017,0.00106491,0.000439949,0.0164718,0.00712856,-0.000161972,0.000873489,0.00121883,0.0410712,0.000602569,0.00046814,0.0217288,-0.0212363,0.000143089,0.000238457,-0.00924591
40,2,0,0,0,0,0,0,231.8,254,0,0,0,0,0,0,0,231.8,766,0,-0.00121456,0.000912323,0.00108845,0.0162429,0.0105618,0.00124947,0.00148384,-0.000383339,-0.0396096,0.00109848,1.03759e-05,0.0216143,-0.0206641,0.00124935,0.00161175,-0.00901703
40,3,0,0,0,0,0,0,231.8,254,0,0,0,0,0,0,0,231.8,766,0,0.0005402,0.000149383,-5.59617e-05,0.0152893,0.00964626,0.000906143,0.000568314,0.000112572,-0.0225579,0.000411835,1.03759e-05,0.0168078,-0.0213507,0.000448265,0.00123028,-0.00844482
40,4,0,0,0,0,0,0,231.8,254,0,0,0,0,0,0,0,231.8,766,0,0.00103611,0.0011412,0.000859566,0.0163192,0.00628933,0.000677261,0.00133125,0.00076107,0.0528205,0.0014418,-0.000104065,0.0147479,-0.0211981,0.000982323,0.00161175,-0.00695709
40,5,0,0,0,0,0,0,231.8,254,0,0,0,0,0,0,0,231.8,766,0,0.000959816,0.00156082,0.00127918,0.015747,0.00838741,0.00166908,0.00144569,0.00106625,-0.0275552,0.000526275,0.00153625,0.0143283,-0.0198248,0.00182156,0.00115398,-0.00905518
40,6,0,0,0,0,0,0,231.8,254,0,0,0,0,0,0,0,231.8,766,0,0.000120583,-0.000537262,-0.000284843,0.0157852,0.0079678,0.000105057,0.00049202,0.000608482,-0.0148141,3.03648e-05,0.00046814,0.0137942,-0.021427,0.000295677,0.00130657,-0.00913147
40,7,0,0,0,0,0,0,231.8,254,0,0,0,0,0,0,0,231.8,766,0,0.00130314,0.000721588,0.00143177,0.015747,0.00342831,0.00102058,-0.000995712,-0.000421486,0.0753654,0.00140366,0.000544433,0.00635555,-0.0199393,0.000677147,-0.000600777,-0.00798706
40,8,0,0,0,0,0,0,231.8,254,0,0,0,0,0,0,0,231.8,766,0,0.00015873,0.000721588,0.000821419,0.0163574,0.00487789,0.00117317,0.00140755,0.000951805,-0.0241219,0.00102219,0.00104034,0.00410488,-0.0201682,0.00105862,0.00145916,-0.00836853
40,9,0,0,0,0,0,0,231.8,254,0,0,0,0,0,0,0,231.8,766,0,0.000235024,3.49423e-05,-0.000590019,0.0163192,0.00434383,0.000410232,0.000720901,7.44248e-05,-0.0102746,0.00106033,0.000544433,0.00612667,-0.0213507,0.000715294,-0.000219307,-0.00943665
41,0,0,0,0,0,0,0,231.8,254,0,0,0,0,0,0,0,231.8,766,0,0.000196877,0.000416412,0.00116474,0.0159759,0.00457272,0.00140205,0.00148384,0.00076107,0.0842536,0.000945892,0.000658874,0.0124591,-0.0200156,0.000295677,0.000848808,-0.00756744
41,1,0,0,0,0,0,0,231.8,254,0,0,0,0,0,0,0,231.8,766,0,0.00137943,0.00106491,0.00112659,0.0171203,0.00300869,0.000829849,0.00106422,0.000455895,-0.0169503,0.00193771,-0.000752564,0.0165789,-0.0213507,0.0012875,0.00126843,-0.00882629
41,2,0,0,0,0,0,0,231.8,254,0,0,0,0,0,0,0,231.8,766,0,0.0005402,0.000340118,0.000478096,0.0165863,0.00342831,0.000181351,0.000949783,-1.86916e-06,-0.0413262,0.000869598,0.00058258,0.0196307,-0.0209692,0.000600853,0.000124016,-0.00798706
41,3,0,0,0,0,0,0,231.8,254,0,0,0,0,0,0,0,231.8,766,0,0.000502053,0.000225677,0.00146992,0.0169296,0.00297054,0.000600967,0.00121681,0.000913658,-0.00481956,0.0002211,0.000429993,0.0207751,-0.0216177,2.86484e-05,0.00134472,-0.00875
41,4,0,0,0,0,0,0,231.8,254,0,0,0,0,0,0,0,231.8,766,0,0.000730935,0.000797882,0.00093586,0.0161285,0.00201687,0.000486526,0.000682754,0.000188866,0.0337852,0.000793304,0.000124817,0.0179522,-0.0207404,0.000906029,-6.6719e-05,-0.00871185
41,5,0,0,0,0,0,0,231.8,254,0,0,0,0,0,0,0,231.8,766,0,6.14207e-06,0.000530853,0.00112659,0.0164718,0.0016354,0.0014402,0.00117867,0.000150719,0.0384391,0.00155624,0.000811462,0.0152819,-0.0204733,0.00205044,0.000619926,-0.0109244
41,6,0,0,0,0,0,0,231.8,254,0,0,0,0,0,0,0,231.8,766,0,-3.20049e-05,3.49423e-05,-0.000399284,0.0162048,-0.002103,0.000753555,0.000644607,0.000494041,-0.040754,-0.000618134,0.000162964,0.0133746,-0.02116,0.000600853,0.000162163,-0.00974182
41,7,0,0,0,0,0,0,231.8,254,0,0,0,0,0,0,0,231.8,766,0,0.00198978,0.000912323,0.00146992,0.0161666,0.00255093,0.00102058,0.00106422,0.00110439,0.0462974,0.000678863,0.00123108,0.0138705,-0.0199011,0.00136379,0.00058178,-0.00890259
41,8,0,0,0,0,0,0,231.8,254,0,0,0,0,0,0,0,231.8,766,0,-3.20049e-05,0.000454559,0.000974007,0.0164718,0.00316128,0.000410232,0.000682754,0.000646629,0.0381721,0.000945892,4.85228e-05,0.0136416,-0.0208929,-0.00023838,0.00103954,-0.00791077
41,9,0,0,0,0,0,0,231.8,254,0,0,0,0,0,0,0,231.8,766,0,0.000502053,-0.000232087,0.00055439,0.0165863,0.00510677,0.000524673,0.00121681,-4.00161e-05,-0.0364816,0.000678863,0.00115479,0.0146334,-0.0219992,0.00147823,-0.000219307,-0.00871185
42,0,0,0,0,0,0,0,231.8,254,0,0,0,0,0,0,0,231.8,766,0,0.00160831,-0.000232087,0.00135548,0.0168533,0.0104473,0.00159279,0.00117867,0.000837364,0.0556434,0.000488129,0.00142181,0.0151294,-0.0208929,-0.000123939,0.00103954,-0.00714783
42,1,0,0,0,0,0,0,231.8,254,0,0,0,0,0,0,0,231.8,766,0,0.000196877,0.000454559,0.000287361,0.0158233,0.0118206,0.00105873,0.000873489,-0.000459633,0.0493873,6.85118e-05,-2.77711e-05,0.0148242,-0.0212744,0.000791588,-0.000371895,-0.00993256
42,2,0,0,0,0,0,0,231.8,254,0,0,0,0,0,0,0,231.8,766,0,0.00130314,-0.000346527,0.00124104,0.0166244,0.00880703,0.000410232,0.000873489,0.000684776,-0.042051,0.000297394,0.000849609,0.0113528,-0.02013,0.00144009,0.000886955,-0.00974182
42,3,0,0,0,0,0,0,231.8,254,0,0,0,0,0,0,0,231.8,766,0,6.14207e-06,-0.000384674,-0.000246697,0.0154419,0.0107144,0.000295792,0.00117867,0.000379601,0.0571311,0.000564422,-0.000371094,0.00936916,-0.0219611,0.000562706,0.000276604,-0.00764374
42,4,0,0,0,0,0,0,231.8,254,0,0,0,0,0,0,0,231.8,766,0,0.000959816,0.00148453,0.000745125,0.0163955,0.0104473,0.00121132,0.00060646,0.00114254,0.0561012,0.00071701,0.000201111,0.0189441,-0.020397,0.0018597,0.00153545,-0.0081778
42,5,0,0,0,0,0,0,231.8,254,0,0,0,0,0,0,0,231.8,766,0,0.000692788,0.000530853,0.00143177,0.0173492,0.00712856,0.00136391,0.00114052,0.00026516,-0.0546777,-0.000694428,0.000429993,0.016083,-0.0204352,0.000944176,-0.000448189,-0.00936035
42,6,0,0,0,0,0,0,231.8,254,0,0,0,0,0,0,0,231.8,766,0,0.000845375,0.000721588,0.000249214,0.01651,0.00804409,0.000448379,0.00129311,0.000951805,-0.0122964,0.000678863,-0.00128662,0.0134509,-0.0219992,0.00178341,0.000772514,-0.00863556
42,7,0,0,0,0,0,0,231.8,254,0,0,0,0,0,0,0,231.8,766,0,0.000997963,-0.000232087,0.000706978,0.015747,0.00979885,0.000333939,0.000949783,-0.00011631,0.00136025,0.000945892,0.000925903,0.0117343,-0.0207404,0.000867882,0.000658073,-0.00699524
42,8,0,0,0,0,0,0,231.8,254,0,0,0,0,0,0,0,231.8,766,0,-0.000184593,0.000149383,0.000745125,0.0157852,0.00648006,-0.000123825,0.000301285,3.62778e-05,0.0626243,0.00071701,0.000658874,0.0127261,-0.0208548,0.000104942,-0.000257454,-0.00794891
42,9,0,0,0,0,0,0,231.8,254,0,0,0,0,0,0,0,231.8,766,0,0.00141758,0.000721588,0.00093586,0.0164337,0.00770077,0.00113502,0.00110237,0.000875511,-0.017904,0.000984039,0.000887756,0.0143283,-0.0197867,0.00269894,0.00123028,-0.00890259
43,0,0,0,0,0,0,0,231.8,254,0,0,0,0,0,0,0,231.8,766,0,0.000120583,0.000416412,0.000134773,0.01651,0.00617489,0.000829849,0.00049202,0.000379601,-0.00901573,-0.000198517,-0.000981445,0.0120395,-0.0217703,0.000295677,0.000810661,-0.00806335
43,1,0,0,0,0,0,0,231.8,254,0,0,0,0,0,0,0,231.8,766,0,0.000616494,0.00140823,0.000363655,0.0158233,0.00457272,0.000791702,0.000568314,0.000913658,0.0670875,0.000335541,-0.000104065,0.0117343,-0.0218848,0.00151638,0.00180248,-0.00764374
43,2,0,0,0,0,0,0,231.8,254,0,0,0,0,0,0,0,231.8,766,0,0.000692788,0.000225677,0.000325508,0.0158233,0.00190243,0.00121132,0.0013694,0.000799217,-0.0200021,3.03648e-05,0.000620727,0.010094,-0.0221136,0.00151638,0.00111584,-0.00844482
43,3,0,0,0,0,0,0,231.8,254,0,0,0,0,0,0,0,231.8,766,0,0.00015873,0.000454559,0.000287361,0.0157089,0.00533566,-0.000734177,0.000148697,0.000494041,-0.00645988,-0.000427399,-0.000828858,0.0115435,-0.0232962,6.67954e-05,0.00020031,-0.00985626
43,4,0,0,0,0,0,0,231.8,254,0,0,0,0,0,0,0,231.8,766,0,0.00145573,0.00156082,0.00093586,0.0166626,0.00628933,0.00128761,0.00152199,0.0016003,0.0807441,0.000945892,0.00104034,0.0138705,-0.0207404,0.0018597,0.00206951,-0.0093222
43,5,0,0,0,0,0,0,231.8,254,0,0,0,0,0,0,0,231.8,766,0,-0.000299034,-3.20468e-06,0.000249214,0.0171203,0.00339016,0.00136391,-0.000118332,-7.81631e-05,-0.0192773,0.00113663,0.000506287,0.0126498,-0.0214651,0.000448265,0.00058178,-0.00760559
43,6,0,0,0,0,0,0,231.8,254,0,0,0,0,0,0,0,231.8,766,0,0.0005402,0.000759735,0.000630684,0.0162811,0.00590786,0.000715408,0.00125496,0.00118069,-0.0101601,0.000182953,0.00172699,0.0147097,-0.0207404,0.00109676,0.000848808,-0.00802521
43,7,0,0,0,0,0,0,231.8,254,0,0,0,0,0,0,0,231.8,766,0,0.00126499,0.000683441,0.000592537,0.017044,0.00262722,0.000867996,0.00159828,0.000837364,0.0860465,0.00140366,-6.59181e-05,0.0143664,-0.0205878,0.00132565,0.000848808,-0.00909332
43,8,0,0,0,0,0,0,231.8,254,0,0,0,0,0,0,0,231.8,766,0,0.000463906,0.000416412,0.000401802,0.0147552,0.00155911,0.000143204,-0.000194626,0.00121883,-0.0188958,0.00113663,-0.000104065,0.0136798,-0.021694,0.000143089,-0.000333748,-0.00772003
43,9,0,0,0,0,0,0,231.8,254,0,0,0,0,0,0,0,231.8,766,0,0.000769082,0.000530853,0.000439949,0.0171585,0.00262722,0.00140205,0.000835342,0.000951805,-0.0440347,0.00125107,0.000773315,0.0158923,-0.02116,0.000867882,-0.000410042,-0.00852112
44,0,0,0,0,0,0,0,231.8,254,0,0,0,0,0,0,0,231.8,766,0,0.000311318,0.000797882,-0.00032299,0.01548,0.00342831,0.000906143,0.000263138,0.000532188,-0.00726097,-7.78213e-06,-0.000332947,0.0148242,-0.0216559,0.000791588,0.00134472,-0.00791077
44,1,0,0,0,0,0,0,231.8,254,0,0,0,0,0,0,0,231.8,766,0,0.00015873,0.000683441,0.000439949,0.0154419,0.00392422,0.000410232,-3.89107e-06,0.000684776,0.0533927,0.00109848,-0.000790711,0.0165789,-0.0215414,0.00105862,0.000963249,-0.00913147
44,2,0,0,0,0,0,0,231.8,254,0,0,0,0,0,0,0,231.8,766,0,-0.000566063,-0.000422821,0.000478096,0.0163574,0.00621304,0.000600967,0.000682754,0.000646629,0.167567,0.00113663,-0.000332947,0.0166934,-0.0207785,0.000944176,0.000505486,-0.00760559
44,3,0,0,0,0,0,0,231.8,254,0,0,0,0,0,0,0,231.8,766,0,0.0011124,0.000607147,2.03323e-05,0.0162811,0.00831112,0.000829849,0.000644607,0.00026516,0.147654,0.000793304,0.000353699,0.016846,-0.0209311,0.00140194,0.00020031,-0.00794891
44,4,0,0,0,0,0,0,231.8,254,0,0,0,0,0,0,0,231.8,766,0,0.000692788,-0.000117646,-1.78147e-05,0.0164337,0.00438198,0.00056282,0.000301285,0.00076107,0.116373,0.000488129,0.000162964,0.0123065,-0.0213507,0.00155453,0.000505486,-0.00840668
44,5,0,0,0,0,0,0,231.8,254,0,0,0,0,0,0,0,231.8,766,0,0.000769082,0.000874176,0.000974007,0.016777,0.00442013,0.00140205,0.00171272,0.000913658,-0.0148904,0.00106033,0.000620727,0.0137561,-0.0204352,0.00174526,0.00149731,-0.00691895
44,6,0,0,0,0,0,0,231.8,254,0,0,0,0,0,0,0,231.8,766,0,-0.00022274,0.000301971,0.000401802,0.01651,0.00289425,0.000486526,-0.000232773,0.000379601,-0.107549,0.000259247,-2.77711e-05,0.0132983,-0.0221518,-4.76455e-05,0.00180248,-0.00852112
44,7,0,0,0,0,0,0,231.8,254,0,0,0,0,0,0,0,231.8,766,0,0.00115055,7.30893e-05,0.000211067,0.0163192,0.00453457,0.000105057,0.00117867,0.000150719,0.0141776,0.00132736,0.00058258,0.0120776,-0.0214651,0.000982323,-0.000295601,-0.00775818
44,8,0,0,0,0,0,0,231.8,254,0,0,0,0,0,0,0,231.8,766,0,0.0005402,0.00117935,0.000668831,0.0166626,0.00499233,0.00105873,0.00049202,0.00140957,0.0038398,0.000640716,0.00149811,0.0162356,-0.0208167,0.00155453,0.00107769,-0.00890259
44,9,0,0,0,0,0,0,231.8,254,0,0,0,0,0,0,0,231.8,766,0,0.000196877,0.000721588,0.00124104,0.0164337,0.00155911,0.00105873,-0.000156479,3.62778e-05,-0.0920617,0.00228104,0.00046814,0.0151294,-0.0216559,0.0012112,0.000543633,-0.00863556
45,0,0,0,0,0,0,0,231.8,254,0,0,0,0,0,0,0,231.8,766,0,0.000959816,0.000416412,0.00120289,0.0167007,0.00529751,0.00105873,0.000186844,0.000303307,0.0188316,0.00159439,0.00115479,0.0163119,-0.020397,0.00136379,0.000543633,-0.00897888
45,1,0,0,0,0,0,0,231.8,254,0,0,0,0,0,0,0,231.8,766,0,0.000616494,0.000721588,-0.000246697,0.0160141,0.00499233,0.000600967,0.000911636,0.00106625,0.0208152,0.000335541,0.000201111,0.0182956,-0.0225714,0.000562706,0.000848808,-0.00970367
45,2,0,0,0,0,0,0,231.8,254,0,0,0,0,0,0,0,231.8,766,0,8.2436e-05,0.000492706,-1.78147e-05,0.0156707,0.00503048,0.000600967,0.000911636,0.000722923,-0.0925957,0.00113663,1.03759e-05,0.0136798,-0.021694,0.00147823,0.00058178,-0.00829224
45,3,0,0,0,0,0,0,231.8,254,0,0,0,0,0,0,0,231.8,766,0,-0.000146446,-0.000117646,0.000211067,0.0160522,0.00518307,0.000372085,0.000530167,0.000341454,-0.0435387,3.03648e-05,-0.000371094,0.0182956,-0.0205115,0.000867882,0.000505486,-0.00787262
45,4,0,0,0,0,0,0,231.8,254,0,0,0,0,0,0,0,231.8,766,0,0.000883522,0.000569,-0.000399284,0.0161285,0.00663265,2.87627e-05,-3.89107e-06,0.000417748,-0.023092,0.000488129,-0.000447388,0.0193637,-0.0228003,0.000639,0.000238457,-0.00875
45,5,0,0,0,0,0,0,231.8,254,0,0,0,0,0,0,0,231.8,766,0,0.000387612,0.000225677,0.000897713,0.0163192,0.00277981,0.00094429,0.000644607,0.000303307,0.0409187,0.000793304,0.000239258,0.0155871,-0.0211981,0.000753441,0.000467339,-0.00779633
45,6,0,0,0,0,0,0,231.8,254,0,0,0,0,0,0,0,231.8,766,0,0.0005402,0.00095047,0.000134773,0.0158615,-0.00149265,0.000524673,0.000415726,0.000608482,-0.0399148,0.000755157,-6.59181e-05,0.0138324,-0.0222281,0.000562706,0.0010014,-0.00722412
45,7,0,0,0,0,0,0,231.8,254,0,0,0,0,0,0,0,231.8,766,0,0.000845375,-7.94986e-05,0.00127918,0.0172729,-0.000729713,0.0014402,0.00152199,0.00133327,-0.0238168,0.00231918,0.00115479,0.0141757,-0.0207785,0.0012112,0.00168804,-0.00890259
45,8,0,0,0,0,0,0,231.8,254,0,0,0,0,0,0,0,231.8,766,0,0.000349465,0.000530853,-0.000170403,0.0171585,-0.00172153,0.000715408,0.00110237,0.000379601,0.0529731,-8.40761e-05,0.000353699,0.0152056,-0.0210074,0.000791588,0.00069622,-0.00661377
45,9,0,0,0,0,0,0,231.8,254,0,0,0,0,0,0,0,231.8,766,0,0.000311318,0.000683441,-0.000132256,0.0149078,-0.00542179,0.000715408,0.000301285,0.000913658,-0.0327813,0.000182953,8.66698e-05,0.0146716,-0.0218466,0.00136379,0.00237469,-0.00909332
46,0,0,0,0,0,0,0,231.8,254,0,0,0,0,0,0,0,231.8,766,0,0.00103611,0.00125565,0.000745125,0.0170059,-0.00702396,0.00109688,0.000835342,0.00137142,-0.0126015,0.00147995,0.00123108,0.0120776,-0.0204352,0.000944176,-0.000600777,-0.00585083
46,1,0,0,0,0,0,0,231.8,254,0,0,0,0,0,0,0,231.8,766,0,-0.000184593,-0.00103317,9.66262e-05,0.0162048,-0.00679508,0.000448379,0.00060646,-1.86916e-06,0.0751365,-8.40761e-05,-0.000332947,0.0114291,-0.0236395,0.000333824,0.00161175,-0.00707153
46,2,0,0,0,0,0,0,231.8,254,0,0,0,0,0,0,0,231.8,766,0,0.000311318,0.000607147,-0.000399284,0.0155944,-0.00561253,0.000448379,-0.000232773,0.000303307,-0.0237405,0.000640716,0.000811462,0.00864437,-0.0216559,0.000181236,0.000124016,-0.00882629
46,3,0,0,0,0,0,0,231.8,254,0,0,0,0,0,0,0,231.8,766,0,0.000425759,0.00095047,0.000706978,0.0167007,-0.00763432,0.000448379,0.00186531,0.000417748,-0.0113045,0.00125107,-0.000371094,0.00772884,-0.0195197,0.00102047,0.000124016,-0.00909332
46,4,0,0,0,0,0,0,231.8,254,0,0,0,0,0,0,0,231.8,766,0,0.000273171,-0.000537262,-0.000361137,0.01651,-0.00568882,0.000333939,0.000759048,0.000455895,0.0850929,0.000335541,-0.00132477,0.00933102,-0.0208548,0.000562706,0.0015736,-0.00813965
46,5,0,0,0,0,0,0,231.8,254,0,0,0,0,0,0,0,231.8,766,0,0.000769082,0.000454559,-0.00020855,0.01651,-0.00561253,0.000295792,0.000682754,0.00118069,-0.0185525,0.000259247,0.000162964,0.0108187,-0.0209692,0.000448265,0.000963249,-0.00703339
46,6,0,0,0,0,0,0,231.8,254,0,0,0,0,0,0,0,231.8,766,0,0.000425759,0.000874176,-0.000170403,0.0155944,-0.00195042,0.000600967,0.000415726,0.000989952,-0.0420129,0.000793304,-0.000104065,0.0126117,-0.0207404,0.000791588,0.000886955,-0.00825409
46,7,0,0,0,0,0,0,231.8,254,0,0,0,0,0,0,0,231.8,766,0,0.000997963,0.00117935,0.000249214,0.0163192,-0.00233189,-4.75312e-05,0.00117867,0.000875511,-0.006231,0.000678863,0.000506287,0.0173037,-0.0213126,0.000181236,0.000772514,-0.00829224
46,8,0,0,0,0,0,0,231.8,254,0,0,0,0,0,0,0,231.8,766,0,0.000463906,7.30893e-05,0.000897713,0.0164337,-0.00076786,0.000791702,-3.89107e-06,-0.000154457,0.0338996,0.000869598,0.000353699,0.0182574,-0.0207404,0.00159267,0.000658073,-0.00901703
46,9,0,0,0,0,0,0,231.8,254,0,0,0,0,0,0,0,231.8,766,0,-0.000299034,0.000454559,-5.59617e-05,0.0160904,0.00155911,0.000639114,-0.00103386,0.000379601,0.0390495,0.000640716,0.000544433,0.0157397,-0.0221136,-0.000123939,0.00191692,-0.00878815
47,0,0,0,0,0,0,0,231.8,254,0,0,0,0,0,0,0,231.8,766,0,0.000502053,0.000797882,0.000325508,0.0165481,0.000872459,0.00121132,0.00117867,-0.000535927,-0.0426995,0.00102219,0.000735168,0.0160449,-0.0206641,0.000371971,8.58689e-05,-0.00878815
47,1,0,0,0,0,0,0,231.8,254,0,0,0,0,0,0,0,231.8,766,0,0.000807228,-0.000117646,5.84793e-05,0.0147552,-0.00164524,-0.000238266,0.000568314,0.000646629,0.0456489,0.000297394,-0.000447388,0.0120013,-0.0206641,0.0018597,0.000886955,-0.00787262
47,2,0,0,0,0,0,0,231.8,254,0,0,0,0,0,0,0,231.8,766,0,0.00160831,0.00171341,0.000668831,0.0176544,0.00304684,0.00102058,0.000301285,0.00137142,0.0393165,-7.78213e-06,0.0010022,0.0102465,-0.0205496,0.000677147,0.00134472,-0.00737671
47,3,0,0,0,0,0,0,231.8,254,0,0,0,0,0,0,0,231.8,766,0,0.000311318,0.000836029,0.00101215,0.0164718,0.00525936,0.00132576,0.00163643,0.000150719,-0.0387704,0.00113663,4.85228e-05,0.0128787,-0.0205115,0.000791588,0.00130657,-0.00920776
47,4,0,0,0,0,0,0,231.8,254,0,0,0,0,0,0,0,231.8,766,0,0.000654641,0.000378265,-0.000590019,0.0158996,0.00396236,0.000600967,-4.2038e-05,0.000188866,0.0550712,-0.000389252,-0.00132477,0.015816,-0.0219611,0.000181236,0.000543633,-0.00844482
47,5,0,0,0,0,0,0,231.8,254,0,0,0,0,0,0,0,231.8,766,0,0.000845375,0.00106491,0.00146992,0.0163574,0.00888332,0.000372085,0.00102608,0.000341454,0.0491965,0.00140366,0.0015744,0.0185626,-0.0203589,0.00147823,0.00153545,-0.00855927
47,6,0,0,0,0,0,0,231.8,254,0,0,0,0,0,0,0,231.8,766,0,0.000311318,0.00106491,0.000821419,0.0157089,0.00960812,0.00113502,7.24029e-05,7.44248e-05,-0.0422799,0.00128921,0.000544433,0.0152819,-0.0207022,0.000715294,0.00119213,-0.0081778
47,7,0,0,0,0,0,0,231.8,254,0,0,0,0,0,0,0,231.8,766,0,0.0005402,0.00095047,0.000783272,0.0159759,0.0109433,0.000791702,0.000224991,0.000150719,0.0585044,0.00140366,0.00168884,0.0118106,-0.021427,0.000944176,8.58689e-05,-0.007453
47,8,0,0,0,0,0,0,231.8,254,0,0,0,0,0,0,0,231.8,766,0,0.000578347,-0.000995026,0.000974007,0.0164337,0.0119351,0.00117317,0.00140755,0.00026516,0.0564063,0.00117477,0.000429993,0.0168078,-0.0205115,0.00102047,0.000658073,-0.00844482
47,9,0,0,0,0,0,0,231.8,254,0,0,0,0,0,0,0,231.8,766,0,0.000235024,0.000988617,-1.78147e-05,0.015747,0.0119732,0.000410232,0.000568314,0.000455895,-0.055555,-0.000579987,0.000506287,0.0170749,-0.0209311,0.000906029,-0.00018116,-0.00871185
48,0,0,0,0,0,0,0,231.8,254,0,0,0,0,0,0,0,231.8,766,0,0.000387612,0.000263824,0.00135548,0.0158996,0.00838741,0.000677261,0.000530167,0.000608482,-0.0129449,0.000373688,0.000124817,0.0149005,-0.0209692,0.000791588,0.00020031,-0.00802521
48,1,0,0,0,0,0,0,231.8,254,0,0,0,0,0,0,0,231.8,766,0,0.000196877,0.000301971,0.00055439,0.015747,0.00915035,0.00140205,0.000759048,7.44248e-05,0.0019706,0.000793304,-0.00101959,0.0152819,-0.020397,0.000791588,0.00126843,-0.00772003
48,2,0,0,0,0,0,0,231.8,254,0,0,0,0,0,0,0,231.8,766,0,0.000196877,0.000759735,0.000287361,0.0157852,0.00873074,0.000219498,0.00106422,7.44248e-05,0.0655997,0.00136551,0.000162964,0.0147097,-0.02116,0.000371971,-0.000333748,-0.00894073
48,3,0,0,0,0,0,0,231.8,254,0,0,0,0,0,0,0,231.8,766,0,0.000120583,0.000530853,0.00120289,0.0162429,0.011134,0.00105873,0.00049202,0.000722923,-0.0185906,0.000640716,0.000277405,0.0156253,-0.02013,-0.000123939,0.000772514,-0.00859741
48,4,0,0,0,0,0,0,231.8,254,0,0,0,0,0,0,0,231.8,766,0,-0.000146446,0.00110306,0.000630684,0.0164337,0.00819668,0.00056282,7.24029e-05,-0.000764809,-0.00878685,0.00071701,0.000658874,0.0161975,-0.0205115,0.00102047,0.000467339,-0.00901703
48,5,0,0,0,0,0,0,231.8,254,0,0,0,0,0,0,0,231.8,766,0,0.00107426,0.000111236,-0.000742607,0.0163955,0.00636562,0.000791702,0.000720901,-4.00161e-05,0.0672782,0.00201401,0.000353699,0.0202411,-0.0212363,0.000639,0.000467339,-0.00821594
48,6,0,0,0,0,0,0,231.8,254,0,0,0,0,0,0,0,231.8,766,0,0.00107426,0.00171341,0.000821419,0.0169677,0.0097607,0.00166908,0.0019416,0.00133327,-0.0201928,0.0002211,0.000849609,0.0197451,-0.0209692,0.00189785,0.000352898,-0.00844482
48,7,0,0,0,0,0,0,231.8,254,0,0,0,0,0,0,0,231.8,766,0,0.000921669,0.000225677,0.000363655,0.0158615,0.00434383,-0.000200119,-0.00065239,0.000532188,-0.00668877,0.000831451,-0.000714417,0.0194781,-0.0215796,0.000104942,-0.000600777,-0.00897888
48,8,0,0,0,0,0,0,231.8,254,0,0,0,0,0,0,0,231.8,766,0,0.00015873,0.000530853,0.000859566,0.0162048,0.00747189,0.000333939,0.000530167,-0.000307045,0.0821174,0.00167068,0.00107849,0.0163882,-0.0210837,0.00151638,0.00119213,-0.00737671
48,9,0,0,0,0,0,0,231.8,254,0,0,0,0,0,0,0,231.8,766,0,0.00103611,0.000530853,0.000745125,0.0159759,0.00968441,0.000677261,0.00125496,0.00114254,-0.0195443,0.000907745,0.000849609,0.0161975,-0.0221899,-0.000123939,0.000925102,-0.00863556
49,0,0,0,0,0,0,0,231.8,254,0,0,0,0,0,0,0,231.8,766,0,0.000654641,0.000569,0.000630684,0.0157852,0.00644192,0.000639114,0.000263138,3.62778e-05,-0.0093972,0.0002211,0.00107849,0.0147479,-0.0216559,0.000486412,0.000658073,-0.010314
49,1,0,0,0,0,0,0,231.8,254,0,0,0,0,0,0,0,231.8,766,0,0.000654641,0.00194229,0.0010503,0.0169296,0.00560268,0.000982437,0.00106422,-0.000955543,0.0888694,0.00228104,0.000925903,0.0131839,-0.0205496,0.000982323,0.000505486,-0.00897888
49,2,0,0,0,0,0,0,231.8,254,0,0,0,0,0,0,0,231.8,766,0,0.000387612,0.000378265,0.000630684,0.0156707,0.00300869,0.00056282,0.00106422,0.000150719,-0.0195443,0.000831451,0.000506287,0.0102465,-0.0210455,0.000448265,-0.000371895,-0.00897888
49,3,0,0,0,0,0,0,231.8,254,0,0,0,0,0,0,0,231.8,766,0,0.000807228,-4.13517e-05,0.00055439,0.01651,0.000719872,0.00094429,0.000759048,3.62778e-05,-0.0458657,0.000106659,0.000544433,0.015816,-0.0221136,0.000944176,8.58689e-05,-0.00722412
49,4,0,0,0,0,0,0,231.8,254,0,0,0,0,0,0,0,231.8,766,0,0.000196877,0.000378265,0.00116474,0.015747,0.00247463,0.000829849,0.000148697,-1.86916e-06,-0.00783318,0.000526275,0.000697021,0.022034,-0.0203589,0.000944176,-6.6719e-05,-0.00760559
49,5,0,0,0,0,0,0,231.8,254,0,0,0,0,0,0,0,231.8,766,0,8.2436e-05,0.0012175,0.000706978,0.0161285,0.00110134,0.000257645,0.00098793,0.000227013,0.0541175,0.00136551,0.000773315,0.021004,-0.0215796,0.000448265,0.000162163,-0.00966553
49,6,0,0,0,0,0,0,231.8,254,0,0,0,0,0,0,0,231.8,766,0,0.000235024,-0.00030838,2.03323e-05,0.0160141,0.00438198,0.000333939,0.0013694,-0.000841103,0.170389,0.000793304,0.000353699,0.0188678,-0.0215796,0.000867882,0.00020031,-0.00802521
49,7,0,0,0,0,0,0,231.8,254,0,0,0,0,0,0,0,231.8,766,0,0.00126499,0.000836029,0.000974007,0.0159759,0.00621304,0.000829849,0.000949783,0.000722923,0.149332,0.000984039,0.000239258,0.0152819,-0.0205496,-0.000276527,0.0010014,-0.00855927
49,8,0,0,0,0,0,0,231.8,254,0,0,0,0,0,0,0,231.8,766,0,-7.01519e-05,0.000378265,0.000249214,0.01548,0.00392422,-0.000276413,0.000720901,0.000150719,0.118014,-4.59291e-05,-6.59181e-05,0.0129931,-0.0223425,0.000906029,0.000124016,-0.00833038
49,9,0,0,0,0,0,0,231.8,254,0,0,0,0,0,0,0,231.8,766,0,8.2436e-05,0.000301971,0.00101215,0.0163192,0.00625118,0.00159279,0.00133125,0.000341454,-0.0160348,0.00159439,0.0010022,0.00799587,-0.0194815,0.00151638,0.000886955,-0.00749115
50,0,0,0,0,0,0,0,231.8,254,0,0,0,0,0,0,0,231.8,766,0,0.000235024,-3.20468e-06,0.000249214,0.0162811,0.0079678,0.000524673,0.000263138,-7.81631e-05,-0.109724,0.000335541,0.000658874,0.00666073,-0.0215796,-9.49856e-06,0.00161175,-0.00878815
50,1,0,0,0,0,0,0,231.8,254,0,0,0,0,0,0,0,231.8,766,0,0.000692788,0.000340118,-0.00020855,0.015747,0.00693783,0.000906143,0.0013694,7.44248e-05,0.0143302,0.00147995,-0.000714417,0.00933102,-0.0205496,0.000333824,0.000772514,-0.00829224
50,2,0,0,0,0,0,0,231.8,254,0,0,0,0,0,0,0,231.8,766,0,0.0011124,0.00117935,0.000630684,0.0169677,0.00522121,0.0014402,0.00144569,0.00137142,0.00330574,0.000869598,0.000773315,0.0105517,-0.0201682,0.00140194,0.00180248,-0.00909332
50,3,0,0,0,0,0,0,231.8,254,0,0,0,0,0,0,0,231.8,766,0,0.000311318,7.30893e-05,0.0010503,0.0159759,0.0060223,6.69097e-05,0.00102608,0.000379601,-0.0946175,0.000831451,-6.59181e-05,0.0125735,-0.0204733,0.00147823,0.000734367,-0.00863556
50,4,0,0,0,0,0,0,231.8,254,0,0,0,0,0,0,0,231.8,766,0,0.00141758,0.000225677,0.0010503,0.0150985,0.00838741,0.00128761,0.000682754,0.0010281,0.0199378,0.00113663,0.000887756,0.010895,-0.0204733,0.000677147,0.00149731,-0.00779633
50,5,0,0,0,0,0,0,231.8,254,0,0,0,0,0,0,0,231.8,766,0,0.000578347,-3.20468e-06,2.03323e-05,0.0157852,0.00636562,0.000333939,0.000453873,-0.00049778,0.0199378,0.000831451,0.000353699,0.00963619,-0.0215796,0.000829735,0.000162163,-0.00897888
50,6,0,0,0,0,0,0,231.8,254,0,0,0,0,0,0,0,231.8,766,0,0.0011887,0.000492706,0.00181324,0.016777,0.00964626,0.00105873,0.00106422,-0.000345192,-0.0932061,0.000678863,0.000620727,0.0175708,-0.0203589,0.0012112,0.00168804,-0.00855927
50,7,0,0,0,0,0,0,231.8,254,0,0,0,0,0,0,0,231.8,766,0,-0.000299034,0.0011412,0.000630684,0.0157089,0.0123166,0.0014402,0.00110237,0.000379601,-0.0430428,0.000678863,0.000277405,0.0170367,-0.0211218,0.000715294,0.000848808,-0.00749115
50,8,0,0,0,0,0,0,231.8,254,0,0,0,0,0,0,0,231.8,766,0,0.000997963,-0.00068985,0.000249214,0.0164718,0.00991329,0.000181351,0.00129311,0.000112572,-0.0239693,0.0014418,0.000658874,0.0151294,-0.0209692,0.000829735,0.0010014,-0.00813965
50,9,0,0,0,0,0,0,231.8,254,0,0,0,0,0,0,0,231.8,766,0,0.000997963,0.00102676,0.000439949,0.0162429,0.00525936,0.000906143,0.000377579,0.000341454,0.0426353,0.00102219,0.000201111,0.0188678,-0.0218848,0.000333824,0.00172619,-0.00737671
51,0,0,0,0,0,0,0,231.8,254,0,0,0,0,0,0,0,231.8,766,0,0.00141758,0.00018753,0.000783272,0.0166244,0.00583157,0.000867996,0.00140755,0.000722923,-0.0413262,0.0002211,0.00145996,0.0202792,-0.0203589,0.00170712,0.00069622,-0.00913147
51,1,0,0,0,0,0,0,231.8,254,0,0,0,0,0,0,0,231.8,766,0,-0.000299034,-3.20468e-06,0.000363655,0.0150985,0.00274166,0.000715408,0.00011055,0.000799217,-0.0243508,0.000640716,-0.000523682,0.0152056,-0.0216559,6.67954e-05,0.000772514,-0.00829224
51,2,0,0,0,0,0,0,231.8,254,0,0,0,0,0,0,0,231.8,766,0,0.00103611,0.000149383,0.00055439,0.0170822,0.00358089,-0.000352707,0.000759048,0.000494041,0.0552619,0.0014418,0.000544433,0.0160067,-0.021427,0.00102047,0.000543633,-0.00710968
51,3,0,0,0,0,0,0,231.8,254,0,0,0,0,0,0,0,231.8,766,0,0.00107426,0.000759735,0.000401802,0.0169296,0.00552639,0.00113502,0.00106422,-0.000268898,-0.0316369,0.00147995,0.00149811,0.0153582,-0.0202826,0.0018597,0.00176434,-0.00962738
51,4,0,0,0,0,0,0,231.8,254,0,0,0,0,0,0,0,231.8,766,0,-0.000566063,-0.000346527,9.66262e-05,0.0155944,0.00541195,0.000295792,0.000186844,-0.000345192,-0.015043,-0.000808869,-0.000180359,0.0145572,-0.0217322,0.000448265,0.000619926,-0.00844482
51,5,0,0,0,0,0,0,231.8,254,0,0,0,0,0,0,0,231.8,766,0,0.000769082,0.000454559,0.000783272,0.0165481,0.00209316,0.000181351,0.00156013,0.000341454,0.0753654,0.00136551,0.000315552,0.0128405,-0.0224188,0.00132565,0.000886955,-0.00981812
51,6,0,0,0,0,0,0,231.8,254,0,0,0,0,0,0,0,231.8,766,0,0.00126499,0.000454559,0.00116474,0.0166244,0.00155911,0.00105873,0.000797195,0.00026516,-0.0249612,0.000182953,0.00130737,0.015549,-0.0206641,0.00212673,0.00069622,-0.00768188
51,7,0,0,0,0,0,0,231.8,254,0,0,0,0,0,0,0,231.8,766,0,0.00137943,0.0012175,-0.000246697,0.0152893,0.00159725,0.000829849,0.000568314,0.000684776,-0.0116479,0.00113663,1.03759e-05,0.0144809,-0.0216177,0.00117306,0.00119213,-0.00886444
