Devices
1000
,,North - Force,,,North - Moment,,,North - CoP,,,South - Force,,,South - Moment,,,South - CoP,,,EMG - Voltage,,,,,,,,,,,,,,,,
Frame,Sub Frame,Fx,Fy,Fz,Mx,My,Mz,Cx,Cy,Cz,Fx,Fy,Fz,Mx,My,Mz,Cx,Cy,Cz,1,2,3,TA,5,Sol,7,8,VL,RF,BF,GlutMed,GlutMax,14,MedGast,16
,,N,N,N,N.mm,N.mm,N.mm,mm,mm,mm,N,N,N,N.mm,N.mm,N.mm,mm,mm,mm,V,V,V,V,V,V,V,V,V,V,V,V,V,V,V,V
1,0,0,0,0,0,0,0,231.8,254,0,0,0,0,0,0,0,231.8,766,0,0.0017609,0.000492706,0.00127918,0.0164337,0.00144466,0.000906143,0.00163643,0.000494041,-0.025953,0.00136551,0.00184143,0.00864437,-0.0215796,0.00166897,0.000772514,-0.00825409
1,1,0,0,0,0,0,0,231.8,254,0,0,0,0,0,0,0,231.8,766,0,0.000616494,0.000111236,0.000287361,0.0159759,0.00854,0.000105057,0.000835342,0.000227013,-0.0662743,-0.00119034,0.000925903,0.00837734,-0.0213889,0.000562706,0.00115398,-0.00901703
1,2,0,0,0,0,0,0,231.8,254,0,0,0,0,0,0,0,231.8,766,0,0.000235024,0.00102676,0.00112659,0.0162811,0.0103711,0.000448379,0.000568314,-0.000154457,-0.0129449,-0.000351105,0.00046814,0.0120395,-0.0215796,0.000753441,0.00153545,-0.0100089
1,3,0,0,0,0,0,0,231.8,254,0,0,0,0,0,0,0,231.8,766,0,0.0005402,0.000149383,0.000706978,0.0163574,0.00873074,0.000410232,0.00049202,0.000341454,0.0460685,0.00071701,0.00134552,0.0141375,-0.021694,0.000295677,0.00107769,-0.00894073
1,4,0,0,0,0,0,0,231.8,254,0,0,0,0,0,0,0,231.8,766,0,0.0011887,0.000721588,-1.78147e-05,0.0162811,0.00808224,0.00113502,0.0013694,-1.86916e-06,0.0548423,-8.40761e-05,0.000620727,0.014519,-0.0202444,0.000867882,0.00119213,-0.0075293
1,5,0,0,0,0,0,0,231.8,254,0,0,0,0,0,0,0,231.8,766,0,0.000463906,-4.13517e-05,0.000325508,0.0157852,0.00735744,0.000906143,0.000797195,0.00026516,-0.0704324,0.000449982,-0.000180359,0.0128787,-0.0209692,0.000677147,0.000505486,-0.0101233
1,6,0,0,0,0,0,0,231.8,254,0,0,0,0,0,0,0,231.8,766,0,0.000349465,0.000454559,0.0010503,0.0162811,0.00705227,0.000753555,0.000720901,0.000379601,0.0614799,0.000602569,0.000544433,0.0150149,-0.0208167,0.000104942,0.000619926,-0.00737671
1,7,0,0,0,0,0,0,231.8,254,0,0,0,0,0,0,0,231.8,766,0,0.000769082,0.000721588,0.000821419,0.0164337,0.00594601,0.00147835,0.000224991,0.000684776,0.0510276,0.000984039,0.00111664,0.0198214,-0.0206641,0.00102047,0.00195507,-0.00901703
1,8,0,0,0,0,0,0,231.8,254,0,0,0,0,0,0,0,231.8,766,0,-0.000184593,-0.000384674,-1.78147e-05,0.0157852,0.0097607,0.000867996,0.000224991,-0.000345192,-0.0675332,-8.40761e-05,0.000925903,0.0184863,-0.0220755,0.000639,0.000467339,-0.00974182
1,9,0,0,0,0,0,0,231.8,254,0,0,0,0,0,0,0,231.8,766,0,0.00103611,0.00129379,0.00204212,0.0158615,0.0104855,0.00128761,0.00182716,0.00076107,0.0678886,0.000488129,1.03759e-05,0.0134127,-0.021427,0.00124935,0.00107769,-0.00859741
2,0,0,0,0,0,0,0,231.8,254,0,0,0,0,0,0,0,231.8,766,0,0.0011124,0.000340118,0.00112659,0.0170822,0.00899776,0.000982437,0.00129311,0.000150719,0.064379,0.000945892,0.000697021,0.0166171,-0.0209692,0.00155453,0.00058178,-0.00955109
2,1,0,0,0,0,0,0,231.8,254,0,0,0,0,0,0,0,231.8,766,0,0.000387612,0.000569,0.00181324,0.0164718,0.00857815,0.000524673,0.0013694,0.000227013,-0.0696313,0.00147995,0.00145996,0.0145953,-0.0208548,0.00102047,0.00107769,-0.00859741
2,2,0,0,0,0,0,0,231.8,254,0,0,0,0,0,0,0,231.8,766,0,0.000845375,0.000874176,0.000516243,0.0165481,0.00674709,0.000410232,0.00011055,0.00114254,0.0683845,0.000106659,0.00123108,0.0135653,-0.0208548,0.00159267,0.00206951,-0.00813965
2,3,0,0,0,0,0,0,231.8,254,0,0,0,0,0,0,0,231.8,766,0,0.000463906,0.000111236,0.000783272,0.0157089,0.0054501,0.000524673,0.000186844,-4.00161e-05,0.0718177,0.000182953,0.00096405,0.0128787,-0.0216177,0.000715294,-0.000219307,-0.0108862
2,4,0,0,0,0,0,0,231.8,254,0,0,0,0,0,0,0,231.8,766,0,0.00015873,-0.000613556,0.000630684,0.0158996,0.00705227,-0.00031456,0.000797195,0.000188866,-0.0846993,0.000297394,0.000124817,0.0148623,-0.0210455,0.000982323,0.000467339,-0.00859741
2,5,0,0,0,0,0,0,231.8,254,0,0,0,0,0,0,0,231.8,766,0,0.000692788,0.000874176,0.00017292,0.0158233,0.0107525,0.000791702,7.24029e-05,0.00144772,-0.0263726,-0.00016037,0.000315552,0.0158923,-0.0208548,0.000867882,0.00153545,-0.00848297
2,6,0,0,0,0,0,0,231.8,254,0,0,0,0,0,0,0,231.8,766,0,0.00149387,0.00018753,0.000668831,0.0162811,0.00655636,0.000181351,0.000530167,0.000112572,-0.00165337,0.00071701,-0.0002948,0.018143,-0.0212744,0.000524559,0.000314751,-0.00813965
2,7,0,0,0,0,0,0,231.8,254,0,0,0,0,0,0,0,231.8,766,0,0.00145573,0.000645294,0.000249214,0.0153274,0.000338402,0.000333939,0.000377579,0.000379601,0.0792945,6.85118e-05,0.000849609,0.0201266,-0.0213889,0.000867882,0.000619926,-0.00844482
2,8,0,0,0,0,0,0,231.8,254,0,0,0,0,0,0,0,231.8,766,0,0.00107426,-0.00068985,0.00093586,0.0159759,0.00144466,-0.000161972,0.00156013,0.000227013,-0.0354516,0.000793304,0.000391846,0.0168078,-0.0218085,0.000753441,0.00069622,-0.00737671
2,9,0,0,0,0,0,0,231.8,254,0,0,0,0,0,0,0,231.8,766,0,0.0017609,0.00144638,0.00158436,0.0159378,0.00319942,0.000677261,0.000186844,0.000455895,-0.0245034,0.00128921,0.00138367,0.0149005,-0.0199393,0.000639,0.00145916,-0.00802521
3,0,0,0,0,0,0,0,231.8,254,0,0,0,0,0,0,0,231.8,766,0,0.000311318,0.000111236,0.000211067,0.0158233,-4.92088e-06,0.000448379,0.00114052,-7.81631e-05,0.0533546,0.000411835,0.00107849,0.0108569,-0.022457,0.000562706,-0.000524483,-0.00897888
3,1,0,0,0,0,0,0,231.8,254,0,0,0,0,0,0,0,231.8,766,0,0.0005402,0.000874176,0.000859566,0.0161666,-0.00343815,0.00132576,0.000797195,0.000722923,-0.0280129,0.000755157,-2.77711e-05,0.0137179,-0.02116,0.00170712,0.000352898,-0.00882629
3,2,0,0,0,0,0,0,231.8,254,0,0,0,0,0,0,0,231.8,766,0,0.000235024,0.000607147,0.000630684,0.0163574,-0.000119362,0.00094429,0.00049202,0.000646629,-0.01531,3.03648e-05,0.000124817,0.021004,-0.0211981,0.00166897,0.00206951,-0.00772003
3,3,0,0,0,0,0,0,231.8,254,0,0,0,0,0,0,0,231.8,766,0,0.000235024,-0.00122391,-1.78147e-05,0.0151367,-0.0034,-0.00103935,0.000530167,-4.00161e-05,0.07033,0.000449982,0.000315552,0.0180667,-0.0229529,-0.000734291,9.57493e-06,-0.00875
3,4,0,0,0,0,0,0,231.8,254,0,0,0,0,0,0,0,231.8,766,0,0.00115055,0.000912323,5.84793e-05,0.0159759,-0.00103489,0.00094429,0.000415726,0.000379601,-0.0187814,0.000945892,0.00153625,0.0151675,-0.0212363,0.000753441,0.000429192,-0.00772003
3,5,0,0,0,0,0,0,231.8,254,0,0,0,0,0,0,0,231.8,766,0,-3.20049e-05,0.000569,9.66262e-05,0.0154037,-0.002103,0.000410232,0.000224991,0.000570335,-0.015043,0.000907745,0.000620727,0.015816,-0.02116,0.000562706,0.00130657,-0.00886444
3,6,0,0,0,0,0,0,231.8,254,0,0,0,0,0,0,0,231.8,766,0,0.000578347,0.000912323,0.000439949,0.0161285,-0.0034,0.000333939,0.000263138,0.000303307,0.0801337,0.000488129,-0.000523682,0.014252,-0.0212363,-0.000162086,0.00020031,-0.0075293
3,7,0,0,0,0,0,0,231.8,254,0,0,0,0,0,0,0,231.8,766,0,0.000349465,0.000683441,0.000630684,0.0168151,-0.00118748,0.000715408,0.000644607,0.000951805,-0.0146996,-4.59291e-05,0.00119293,0.012955,-0.0218085,0.000524559,0.000886955,-0.00878815
3,8,0,0,0,0,0,0,231.8,254,0,0,0,0,0,0,0,231.8,766,0,0.000807228,0.000797882,0.000516243,0.0173874,-0.00183598,0.000639114,0.00011055,0.00076107,-0.0426995,0.000526275,0.00149811,0.0123828,-0.0212363,0.00136379,0.0010014,-0.00783447
3,9,0,0,0,0,0,0,231.8,254,0,0,0,0,0,0,0,231.8,766,0,-0.000489769,0.000721588,0.00093586,0.0158615,-0.00263706,0.00113502,0.00163643,0.000227013,-0.00665062,0.000755157,0.000429993,0.0150149,-0.0201682,0.00144009,0.00168804,-0.0081778
4,0,0,0,0,0,0,0,231.8,254,0,0,0,0,0,0,0,231.8,766,0,0.000845375,-0.000422821,9.66262e-05,0.0160522,-0.00320927,0.000600967,-3.89107e-06,0.000417748,0.0265372,3.03648e-05,0.000201111,0.014519,-0.0212363,0.000677147,0.000963249,-0.00955109
4,1,0,0,0,0,0,0,231.8,254,0,0,0,0,0,0,0,231.8,766,0,0.000883522,-4.13517e-05,-0.000132256,0.0161666,-0.00103489,0.000715408,0.000263138,0.000913658,0.0385535,-0.000465546,0.000353699,0.0140994,-0.0212744,0.00105862,0.000810661,-0.00760559
4,2,0,0,0,0,0,0,231.8,254,0,0,0,0,0,0,0,231.8,766,0,0.00160831,0.000836029,0.000668831,0.0162811,0.00274166,0.00166908,-0.000347214,0.000951805,-0.0386941,0.00193771,0.000277405,0.0174945,-0.0203589,0.000448265,0.00302319,-0.00894073
4,3,0,0,0,0,0,0,231.8,254,0,0,0,0,0,0,0,231.8,766,0,6.14207e-06,0.000111236,0.00112659,0.0159378,0.000223961,0.00094429,0.000224991,-0.000421486,0.039202,0.000106659,0.000735168,0.0156634,-0.0223807,0.000486412,-0.000677071,-0.00936035
4,4,0,0,0,0,0,0,231.8,254,0,0,0,0,0,0,0,231.8,766,0,0.000997963,0.000530853,0.000287361,0.016777,0.00148281,2.87627e-05,0.000797195,0.00110439,0.0378669,0.000984039,0.000315552,0.0148242,-0.0215796,0.00124935,0.00126843,-0.00676636
4,5,0,0,0,0,0,0,231.8,254,0,0,0,0,0,0,0,231.8,766,0,0.00107426,0.000301971,0.000516243,0.0163192,0.00133022,0.00124947,-0.000309067,0.00118069,-0.0352608,0.000831451,-6.59181e-05,0.0158541,-0.0215033,0.000867882,0.00149731,-0.00756744
4,6,0,0,0,0,0,0,231.8,254,0,0,0,0,0,0,0,231.8,766,0,0.000692788,3.49423e-05,0.000325508,0.0155944,-0.000348244,0.000486526,0.00049202,-0.000307045,0.0484336,0.000984039,0.000697021,0.0137561,-0.021427,0.000333824,-0.000753365,-0.00920776
4,7,0,0,0,0,0,0,231.8,254,0,0,0,0,0,0,0,231.8,766,0,0.000425759,-0.000155793,0.000516243,0.0158233,0.00495419,0.000639114,0.00129311,0.000379601,0.0491203,0.000526275,0.000239258,0.0134127,-0.0222281,0.00102047,9.57493e-06,-0.00829224
4,8,0,0,0,0,0,0,231.8,254,0,0,0,0,0,0,0,231.8,766,0,0.000120583,0.00117935,0.00017292,0.0156326,0.00567898,0.000410232,-0.000347214,0.000417748,-0.0398385,-4.59291e-05,0.00096405,0.0153582,-0.0214651,0.000715294,0.000429192,-0.00951294
4,9,0,0,0,0,0,0,231.8,254,0,0,0,0,0,0,0,231.8,766,0,0.000235024,-7.94986e-05,0.000668831,0.0162429,0.00255093,0.000791702,0.000301285,0.000455895,0.0504935,0.0014418,0.000429993,0.0152438,-0.0210837,0.0012112,0.000619926,-0.00707153
5,0,0,0,0,0,0,0,231.8,254,0,0,0,0,0,0,0,231.8,766,0,0.000273171,0.000836029,5.84793e-05,0.01445,-0.000119362,0.000906143,-0.000156479,0.000379601,0.0564063,0.000831451,-0.000409241,0.0110095,-0.0225333,0.000448265,0.00138287,-0.00844482
5,1,0,0,0,0,0,0,231.8,254,0,0,0,0,0,0,0,231.8,766,0,0.000997963,0.00125565,0.000363655,0.0168533,0.00438198,0.000295792,0.000911636,0.00118069,-0.0510155,0.00102219,0.000353699,0.0161593,-0.0219611,0.00182156,0.000619926,-0.00794891
5,2,0,0,0,0,0,0,231.8,254,0,0,0,0,0,0,0,231.8,766,0,0.000273171,7.30893e-05,0.000630684,0.0156707,0.00586971,0.000410232,0.00011055,0.000646629,-0.0126778,0.000793304,-0.000218506,0.0165026,-0.0205878,-0.000276527,0.00020031,-0.00798706
5,3,0,0,0,0,0,0,231.8,254,0,0,0,0,0,0,0,231.8,766,0,0.000502053,0.000683441,0.000592537,0.0164718,0.00533566,-0.000429001,0.000911636,0.000608482,0.00593788,0.000373688,0.00107849,0.0188296,-0.0216177,0.000524559,0.0015736,-0.00875
5,4,0,0,0,0,0,0,231.8,254,0,0,0,0,0,0,0,231.8,766,0,-0.000489769,-3.20468e-06,0.000287361,0.0155944,0.00838741,0.00124947,0.000377579,-1.86916e-06,0.113093,0.000449982,-0.000981445,0.0150912,-0.0211981,0.000677147,0.000124016,-0.0075293
5,5,0,0,0,0,0,0,231.8,254,0,0,0,0,0,0,0,231.8,766,0,0.000883522,0.000683441,0.000706978,0.0163574,0.0110958,0.00124947,0.000797195,0.00144772,0.159594,-0.000122223,0.000620727,0.0118487,-0.0213507,0.00155453,0.00191692,-0.00737671
5,6,0,0,0,0,0,0,231.8,254,0,0,0,0,0,0,0,231.8,766,0,0.000273171,7.30893e-05,-0.000170403,0.0152893,0.0113247,-0.000200119,-8.0185e-05,0.000379601,0.13209,0.000869598,-0.000790711,0.0118487,-0.0210837,0.000944176,-0.000371895,-0.0081015
5,7,0,0,0,0,0,0,231.8,254,0,0,0,0,0,0,0,231.8,766,0,0.000311318,0.000797882,0.000897713,0.0168533,0.00644192,0.000486526,0.000377579,0.000494041,0.072924,0.000640716,0.000391846,0.0135653,-0.0223425,0.00113491,0.000772514,-0.00718597
5,8,0,0,0,0,0,0,231.8,254,0,0,0,0,0,0,0,231.8,766,0,0.000769082,0.0012175,0.000974007,0.0171585,0.0118206,0.000372085,0.00110237,0.00156216,-0.0797021,0.00147995,0.0015744,0.0182193,-0.0212744,0.00132565,0.000314751,-0.00829224
5,9,0,0,0,0,0,0,231.8,254,0,0,0,0,0,0,0,231.8,766,0,-0.000451622,-4.13517e-05,0.000516243,0.0153274,0.0123166,0.000143204,-0.000614243,0.000951805,-0.0536477,0.000449982,1.03759e-05,0.0218814,-0.0218848,-0.000390968,0.000619926,-0.00749115
6,0,0,0,0,0,0,0,231.8,254,0,0,0,0,0,0,0,231.8,766,0,0.0005402,0.0011412,0.000821419,0.0165863,0.0159787,0.00159279,0.000682754,0.00106625,0.0441993,0.000793304,0.000544433,0.0207751,-0.0210455,0.00227932,0.00142101,-0.00806335
6,1,0,0,0,0,0,0,231.8,254,0,0,0,0,0,0,0,231.8,766,0,0.000425759,7.30893e-05,0.0010503,0.0168151,0.0149868,0.0014402,0.000911636,0.000227013,-0.0557076,0.0014418,0.000162964,0.0165026,-0.0207785,0.0012875,0.000429192,-0.00802521
6,2,0,0,0,0,0,0,231.8,254,0,0,0,0,0,0,0,231.8,766,0,0.000654641,0.00095047,9.66262e-05,0.0156707,0.0109814,0.000410232,0.000873489,0.000913658,-0.0473916,6.85118e-05,0.000201111,0.0167697,-0.0213507,0.00105862,0.000429192,-0.00772003
6,3,0,0,0,0,0,0,231.8,254,0,0,0,0,0,0,0,231.8,766,0,0.000235024,0.000759735,0.00093586,0.0162811,0.0133084,0.000791702,0.00098793,0.000875511,0.0539649,6.85118e-05,0.000773315,0.0153582,-0.0208167,0.00155453,0.00103954,-0.00867371
6,4,0,0,0,0,0,0,231.8,254,0,0,0,0,0,0,0,231.8,766,0,0.000120583,0.000836029,0.000325508,0.0160522,0.0091885,0.000867996,0.000835342,0.000341454,-0.0427758,0.000640716,-0.000104065,0.0135272,-0.0218085,0.000753441,0.00145916,-0.00806335
6,5,0,0,0,0,0,0,231.8,254,0,0,0,0,0,0,0,231.8,766,0,4.4289e-05,0.00117935,0.000211067,0.0155563,0.0066708,0.00132576,0.00011055,-7.81631e-05,-0.0681435,0.000831451,-0.000180359,0.0126879,-0.0218085,0.000639,0.000886955,-0.00779633
6,6,0,0,0,0,0,0,231.8,254,0,0,0,0,0,0,0,231.8,766,0,0.000349465,0.000836029,-1.78147e-05,0.0154037,0.00594601,0.00102058,0.000644607,0.00076107,-0.0286996,0.000640716,0.000277405,0.0112002,-0.0211981,0.000906029,4.77219e-05,-0.00722412
6,7,0,0,0,0,0,0,231.8,254,0,0,0,0,0,0,0,231.8,766,0,-0.000413475,0.000645294,0.000401802,0.0163574,0.00525936,-0.000467148,0.000415726,0.00026516,0.00895149,0.000755157,0.000391846,0.0135272,-0.0226096,0.00155453,0.000352898,-0.00779633
6,8,0,0,0,0,0,0,231.8,254,0,0,0,0,0,0,0,231.8,766,0,0.000769082,0.000454559,0.000287361,0.016777,0.0040768,0.000829849,-0.000690537,0.000684776,0.019976,0.000984039,0.000887756,0.0110476,-0.0219611,0.000867882,-0.000143013,-0.00829224
6,9,0,0,0,0,0,0,231.8,254,0,0,0,0,0,0,0,231.8,766,0,0.0005402,0.000263824,0.000974007,0.0159759,0.00525936,0.000791702,0.000797195,-7.81631e-05,-0.0558602,0.0020903,0.00107849,0.0104754,-0.0216559,0.00117306,0.000505486,-0.00764374
7,0,0,0,0,0,0,0,231.8,254,0,0,0,0,0,0,0,231.8,766,0,0.00015873,-0.000117646,-0.000399284,0.0156326,0.00861629,0.00102058,0.000949783,0.00106625,0.0264228,0.0002211,-0.0015155,0.0124209,-0.0218085,0.000486412,0.00145916,-0.0081778
7,1,0,0,0,0,0,0,231.8,254,0,0,0,0,0,0,0,231.8,766,0,0.000463906,0.00159897,0.000478096,0.0165481,0.00960812,0.00140205,0.00232307,0.00179104,0.0270332,0.000488129,0.00107849,0.0123065,-0.0210837,0.00174526,0.00199322,-0.00920776
7,2,0,0,0,0,0,0,231.8,254,0,0,0,0,0,0,0,231.8,766,0,0.000387612,-0.000422821,0.000249214,0.0150985,0.0054501,-0.000123825,0.000453873,0.000608482,-0.0458657,0.000678863,-0.000905151,0.0128024,-0.021694,0.000486412,0.000314751,-0.00836853
7,3,0,0,0,0,0,0,231.8,254,0,0,0,0,0,0,0,231.8,766,0,0.000502053,0.00148453,0.000363655,0.0163574,0.00579342,0.00102058,0.000873489,0.000722923,0.0411094,0.00102219,0.00058258,0.0106662,-0.02116,0.000600853,0.00130657,-0.00977997
7,4,0,0,0,0,0,0,231.8,254,0,0,0,0,0,0,0,231.8,766,0,0.000425759,0.000378265,0.000745125,0.0159378,0.00972256,-9.38424e-06,0.00148384,0.000494041,0.043093,0.00102219,0.000887756,0.0140231,-0.0217703,-0.000162086,0.000772514,-0.00855927
7,5,0,0,0,0,0,0,231.8,254,0,0,0,0,0,0,0,231.8,766,0,0.000578347,-0.000384674,0.00017292,0.0159759,0.00754818,0.000372085,-0.000194626,0.000875511,-0.0438058,0.000793304,0.000353699,0.0161975,-0.0210837,0.000639,0.000543633,-0.00894073
7,6,0,0,0,0,0,0,231.8,254,0,0,0,0,0,0,0,231.8,766,0,-0.000489769,0.000836029,0.00108845,0.0165863,0.00396236,0.00056282,0.000682754,0.000799217,0.0470985,0.00128921,0.000620727,0.0145953,-0.0211981,0.00124935,0.000543633,-0.0102377
7,7,0,0,0,0,0,0,231.8,254,0,0,0,0,0,0,0,231.8,766,0,6.14207e-06,0.000721588,0.000859566,0.0164337,0.000567284,0.000448379,0.00121681,-0.000154457,0.0533546,0.000373688,4.85228e-05,0.0117724,-0.0209692,0.000715294,0.000276604,-0.00875
7,8,0,0,0,0,0,0,231.8,254,0,0,0,0,0,0,0,231.8,766,0,0.000235024,0.000759735,0.000516243,0.0168151,0.00224575,0.00155464,0.000835342,0.000494041,-0.0517785,0.00109848,0.000773315,0.0108187,-0.0203589,0.00155453,0.00138287,-0.00798706
7,9,0,0,0,0,0,0,231.8,254,0,0,0,0,0,0,0,231.8,766,0,-0.000146446,-0.00019394,0.000859566,0.01548,0.00159725,0.000181351,0.000873489,0.000455895,-0.0138223,0.00132736,-0.0002948,0.0136035,-0.0208929,0.000600853,0.000963249,-0.0081015
8,0,0,0,0,0,0,0,231.8,254,0,0,0,0,0,0,0,231.8,766,0,0.000692788,0.000874176,0.000401802,0.0164718,0.00251278,0.00109688,-0.000537949,0.000455895,0.0012458,0.00121292,0.0010022,0.0150912,-0.0213126,0.000906029,-6.6719e-05,-0.00775818
8,1,0,0,0,0,0,0,231.8,254,0,0,0,0,0,0,0,231.8,766,0,0.00015873,-0.000460968,0.000134773,0.0156707,0.000643578,0.000791702,0.000377579,0.000570335,0.0561774,0.00109848,-0.000905151,0.0155871,-0.0213126,0.000906029,0.000886955,-0.00875
8,2,0,0,0,0,0,0,231.8,254,0,0,0,0,0,0,0,231.8,766,0,0.000578347,0.0011412,0.000363655,0.0154037,-0.00324741,0.000524673,0.00060646,0.000188866,-0.0126397,0.00071701,-0.000142212,0.0149768,-0.0215796,0.000906029,0.00145916,-0.007453
8,3,0,0,0,0,0,0,231.8,254,0,0,0,0,0,0,0,231.8,766,0,-7.01519e-05,0.00144638,0.0010503,0.017044,-0.00393406,0.000715408,0.00148384,0.00171474,-0.00840538,0.00102219,0.000887756,0.0139849,-0.0209311,0.00182156,0.00153545,-0.00798706
8,4,0,0,0,0,0,0,231.8,254,0,0,0,0,0,0,0,231.8,766,0,0.000387612,-0.000460968,-0.000666313,0.0165863,-0.00343815,0.000105057,0.000186844,0.000532188,0.0639594,0.000640716,0.000315552,0.0159304,-0.0218848,-0.000696144,0.00153545,-0.00760559
8,5,0,0,0,0,0,0,231.8,254,0,0,0,0,0,0,0,231.8,766,0,0.000235024,0.000912323,0.00093586,0.0164337,-0.00229374,0.00117317,0.000797195,0.000227013,-0.0106561,0.00178513,0.000239258,0.0191729,-0.0205878,0.00124935,-0.000257454,-0.00764374
8,6,0,0,0,0,0,0,231.8,254,0,0,0,0,0,0,0,231.8,766,0,-0.00022274,-0.000804291,5.84793e-05,0.0159378,-0.00160709,0.00105873,0.000911636,0.000227013,-0.00520103,0.000373688,0.000315552,0.0159686,-0.0210455,0.00102047,-6.6719e-05,-0.00974182
8,7,0,0,0,0,0,0,231.8,254,0,0,0,0,0,0,0,231.8,766,0,0.00115055,0.000340118,-0.00020855,0.0157089,-0.00111118,-0.00031456,0.0013694,0.00076107,0.0798286,-0.000236664,-2.77711e-05,0.0148242,-0.0234106,0.000982323,0.00119213,-0.00783447
8,8,0,0,0,0,0,0,231.8,254,0,0,0,0,0,0,0,231.8,766,0,0.000463906,0.000721588,0.000745125,0.0158233,-0.00076786,0.00056282,0.000377579,-0.000421486,-0.011419,0.000449982,0.000162964,0.016083,-0.021427,0.00113491,0.000276604,-0.00863556
8,9,0,0,0,0,0,0,231.8,254,0,0,0,0,0,0,0,231.8,766,0,0.000235024,0.000378265,-0.000513725,0.0162048,0.00102505,0.000639114,0.000949783,0.000417748,-0.00806206,0.000755157,8.66698e-05,0.0163501,-0.0209692,0.000867882,0.000619926,-0.00859741
9,0,0,0,0,0,0,0,231.8,254,0,0,0,0,0,0,0,231.8,766,0,0.000654641,0.000225677,0.000974007,0.0151367,-0.00111118,-0.000123825,0.00125496,0.000799217,0.0846351,0.00117477,-0.000256653,0.0103991,-0.022457,0.000906029,0.00111584,-0.00852112
9,1,0,0,0,0,0,0,231.8,254,0,0,0,0,0,0,0,231.8,766,0,0.000997963,0.00106491,0.00101215,0.01651,0.00564083,0.00155464,0.00049202,0.00125698,-0.00920647,0.000640716,0.000544433,0.0138705,-0.0226859,0.00117306,0.000848808,-0.0075293
9,2,0,0,0,0,0,0,231.8,254,0,0,0,0,0,0,0,231.8,766,0,8.2436e-05,0.000111236,0.000325508,0.0163574,0.00327572,0.000906143,0.000339432,-0.00164219,-0.0389611,0.00163254,0.00130737,0.0118106,-0.0215414,0.000791588,-0.000829658,-0.00855927
9,3,0,0,0,0,0,0,231.8,254,0,0,0,0,0,0,0,231.8,766,0,0.00015873,3.49423e-05,0.000249214,0.0158233,0.00438198,0.000677261,0.000759048,0.000303307,-0.00356071,0.000488129,-0.000752564,0.0104754,-0.0213889,0.000600853,0.00058178,-0.0103522
9,4,0,0,0,0,0,0,231.8,254,0,0,0,0,0,0,0,231.8,766,0,0.000807228,0.000340118,-9.41086e-05,0.0161285,0.00499233,0.000867996,0.00133125,0.00110439,0.0484718,0.000945892,-6.59181e-05,0.0117724,-0.0216177,0.00132565,0.000772514,-0.00977997
9,5,0,0,0,0,0,0,231.8,254,0,0,0,0,0,0,0,231.8,766,0,0.000463906,0.000530853,0.00108845,0.016777,0.0035046,0.000906143,0.00114052,0.000875511,0.158602,0.0014418,0.000773315,0.0136035,-0.0215033,0.00132565,0.00191692,-0.00859741
9,6,0,0,0,0,0,0,231.8,254,0,0,0,0,0,0,0,231.8,766,0,0.00015873,0.000378265,-0.000246697,0.0162811,0.0053738,6.69097e-05,0.000148697,3.62778e-05,0.14342,0.000640716,0.00119293,0.0129931,-0.0214651,0.0012875,0.000543633,-0.0101614
9,7,0,0,0,0,0,0,231.8,254,0,0,0,0,0,0,0,231.8,766,0,0.000769082,0.000111236,0.000821419,0.0154037,0.00735744,0.000524673,0.00129311,0.000608482,0.116602,0.000488129,-2.77711e-05,0.00845364,-0.0213507,0.00136379,-0.00018116,-0.00806335
9,8,0,0,0,0,0,0,231.8,254,0,0,0,0,0,0,0,231.8,766,0,0.00130314,0.00129379,0.00196583,0.0158615,0.00571712,0.00132576,0.00049202,0.00106625,-0.00439995,0.00109848,0.00184143,0.0063937,-0.0199393,0.00201229,0.00111584,-0.00813965
9,9,0,0,0,0,0,0,231.8,254,0,0,0,0,0,0,0,231.8,766,0,0.000425759,0.000111236,0.000325508,0.0160141,0.0040768,-0.000429001,0.000797195,0.000150719,-0.099157,-8.40761e-05,-6.59181e-05,0.00776699,-0.0227621,0.000181236,0.000238457,-0.00878815
10,0,0,0,0,0,0,0,231.8,254,0,0,0,0,0,0,0,231.8,766,0,8.2436e-05,0.000607147,0.000325508,0.0149841,0.00449642,0.000295792,0.000339432,7.44248e-05,0.012728,0.00109848,0.000849609,0.0113147,-0.0213889,0.00025753,0.00134472,-0.00852112
10,1,0,0,0,0,0,0,231.8,254,0,0,0,0,0,0,0,231.8,766,0,0.00130314,0.00095047,0.00116474,0.0170822,0.00449642,0.00155464,0.000377579,0.000722923,0.0102866,0.000297394,0.0010022,0.0109713,-0.0213126,0.0012875,0.00172619,-0.00764374
10,2,0,0,0,0,0,0,231.8,254,0,0,0,0,0,0,0,231.8,766,0,0.0005402,0.000378265,0.00017292,0.0155182,0.00396236,-9.38424e-06,0.000720901,-0.000574074,-0.0855004,0.000526275,0.0010022,0.0134127,-0.0219992,0.000791588,0.000467339,-0.00951294
10,3,0,0,0,0,0,0,231.8,254,0,0,0,0,0,0,0,231.8,766,0,0.000502053,-0.000270233,9.66262e-05,0.0160522,0.00640377,0.000143204,0.00102608,0.000646629,0.0173057,0.000335541,0.000429993,0.013489,-0.0216177,0.000906029,0.000391045,-0.00813965
10,4,0,0,0,0,0,0,231.8,254,0,0,0,0,0,0,0,231.8,766,0,0.00134129,0.000301971,0.000630684,0.0165863,0.00747189,0.00102058,0.00129311,0.000227013,0.0260032,0.00121292,0.000811462,0.0153201,-0.0200919,0.000982323,0.00069622,-0.00821594
10,5,0,0,0,0,0,0,231.8,254,0,0,0,0,0,0,0,231.8,766,0,-0.000375328,-0.000155793,0.000363655,0.0162048,0.00461086,0.000829849,0.000797195,-0.000383339,-0.0851189,0.000144806,0.0010022,0.0142138,-0.0212363,0.000562706,-0.000486336,-0.00848297
10,6,0,0,0,0,0,0,231.8,254,0,0,0,0,0,0,0,231.8,766,0,0.00137943,0.000569,0.0010503,0.0161285,0.00525936,0.000219498,0.00163643,0.000570335,-0.0393044,0.000526275,0.00149811,0.0136416,-0.0217322,0.000448265,0.000772514,-0.00859741
10,7,0,0,0,0,0,0,231.8,254,0,0,0,0,0,0,0,231.8,766,0,-0.000184593,0.000416412,2.03323e-05,0.0163955,0.00876888,0.000639114,-4.2038e-05,0.000417748,-0.0219094,0.00102219,-0.0002948,0.0126498,-0.0212744,0.000333824,0.000734367,-0.00890259
10,8,0,0,0,0,0,0,231.8,254,0,0,0,0,0,0,0,231.8,766,0,-0.000260887,0.000454559,0.000287361,0.015213,0.00873074,0.000906143,0.000148697,-0.000650368,0.038935,0.000869598,-0.000332947,0.0116961,-0.0225714,0.000295677,0.000238457,-0.00840668
10,9,0,0,0,0,0,0,231.8,254,0,0,0,0,0,0,0,231.8,766,0,0.00221867,0.000607147,0.00112659,0.0159759,0.0060223,0.000639114,0.00114052,0.0010281,-0.0339257,0.000640716,0.00130737,0.0189059,-0.0210837,0.000524559,0.000124016,-0.00970367
11,0,0,0,0,0,0,0,231.8,254,0,0,0,0,0,0,0,231.8,766,0,-0.000604209,0.000340118,0.000439949,0.0166626,0.00941738,0.000639114,0.00125496,0.000837364,-0.0248086,0.000488129,0.0015744,0.0216143,-0.0204733,0.00174526,0.000619926,-0.010047
11,1,0,0,0,0,0,0,231.8,254,0,0,0,0,0,0,0,231.8,766,0,0.000921669,0.000569,-9.41086e-05,0.0150985,0.00915035,2.87627e-05,0.000530167,0.00121883,0.0515235,0.000945892,-0.0015155,0.0206988,-0.022724,0.000104942,0.000925102,-0.00699524
11,2,0,0,0,0,0,0,231.8,254,0,0,0,0,0,0,0,231.8,766,0,0.00164646,0.000149383,0.000439949,0.0175781,0.00644192,0.00117317,0.00167458,0.00076107,-0.0242745,0.00193771,0.00115479,0.0186389,-0.0211218,0.00224117,0.00142101,-0.00787262
11,3,0,0,0,0,0,0,231.8,254,0,0,0,0,0,0,0,231.8,766,0,0.0011887,0.000416412,0.000516243,0.0155944,0.00548824,0.000333939,-0.00027092,-0.000345192,-0.0160729,0.000793304,-0.000409241,0.0200885,-0.0221899,0.000791588,-0.000295601,-0.00760559
11,4,0,0,0,0,0,0,231.8,254,0,0,0,0,0,0,0,231.8,766,0,0.000425759,-3.20468e-06,0.000249214,0.0158233,0.0022839,-0.000238266,0.000301285,0.000913658,0.0705589,0.000373688,0.00058258,0.0204699,-0.022724,-8.57925e-05,0.000619926,-0.00844482
11,5,0,0,0,0,0,0,231.8,254,0,0,0,0,0,0,0,231.8,766,0,8.2436e-05,-7.94986e-05,0.00127918,0.0162429,0.00342831,0.000372085,0.00060646,0.000112572,-0.017904,0.000564422,0.000277405,0.0159686,-0.02116,0.00144009,0.000314751,-0.00863556
11,6,0,0,0,0,0,0,231.8,254,0,0,0,0,0,0,0,231.8,766,0,-0.000413475,-7.94986e-05,0.000821419,0.0157089,0.00224575,0.000486526,-3.89107e-06,0.000951805,-0.0138223,0.000411835,0.00107849,0.0206988,-0.02116,0.000982323,0.00138287,-0.0099707
11,7,0,0,0,0,0,0,231.8,254,0,0,0,0,0,0,0,231.8,766,0,0.00141758,0.00018753,0.000745125,0.0159378,0.000872459,0.000410232,0.000186844,0.000608482,0.0810874,0.000526275,0.00123108,0.0210803,-0.0220374,0.000753441,-0.000867805,-0.00936035
11,8,0,0,0,0,0,0,231.8,254,0,0,0,0,0,0,0,231.8,766,0,0.00137943,0.000378265,0.00139362,0.0165863,0.00243649,0.000906143,0.000911636,0.000608482,-0.0118768,0.000793304,0.000391846,0.0163501,-0.0213507,0.0012112,0.00107769,-0.00894073
11,9,0,0,0,0,0,0,231.8,254,0,0,0,0,0,0,0,231.8,766,0,0.000692788,-0.000422821,-0.00123852,0.0161666,0.0022839,-0.000161972,0.00060646,0.000455895,-0.0409829,-0.000312958,0.000620727,0.0200885,-0.0216559,0.000104942,0.00138287,-0.00878815
12,0,0,0,0,0,0,0,231.8,254,0,0,0,0,0,0,0,231.8,766,0,0.000235024,0.000607147,0.000363655,0.0158233,0.00483974,0.000639114,0.000453873,0.000150719,-0.00470512,0.000106659,0.000620727,0.0191348,-0.021694,0.000562706,0.00020031,-0.00936035
12,1,0,0,0,0,0,0,231.8,254,0,0,0,0,0,0,0,231.8,766,0,0.000502053,0.00140823,0.000363655,0.0161666,0.00529751,0.00109688,0.000949783,0.000341454,0.0288261,0.00167068,0.000391846,0.0174945,-0.0212363,0.00102047,0.000543633,-0.00970367
12,2,0,0,0,0,0,0,231.8,254,0,0,0,0,0,0,0,231.8,766,0,0.000807228,0.000263824,0.000974007,0.016777,0.00133022,-0.000161972,0.000415726,0.000608482,0.0408042,0.000259247,0.00168884,0.0169223,-0.0216559,0.00140194,0.00069622,-0.00878815
12,3,0,0,0,0,0,0,231.8,254,0,0,0,0,0,0,0,231.8,766,0,0.00157017,0.000569,0.0010503,0.0164337,-0.00145451,0.000486526,-0.000347214,0.000608482,-0.0377785,0.00212845,0.000201111,0.0160067,-0.0212744,0.000600853,0.000162163,-0.00764374
12,4,0,0,0,0,0,0,231.8,254,0,0,0,0,0,0,0,231.8,766,0,-0.000451622,0.00018753,0.000401802,0.0163192,0.00049099,0.000524673,0.000339432,7.44248e-05,0.0400413,0.000144806,-0.000523682,0.0142138,-0.0228384,0.000295677,0.000238457,-0.00798706
12,5,0,0,0,0,0,0,231.8,254,0,0,0,0,0,0,0,231.8,766,0,0.00107426,-0.000232087,9.66262e-05,0.0163955,-0.00103489,0.000867996,0.00178902,0.000989952,0.038668,0.000526275,0.000162964,0.0115054,-0.0215414,0.00102047,0.0010014,-0.00779633
12,6,0,0,0,0,0,0,231.8,254,0,0,0,0,0,0,0,231.8,766,0,0.000959816,0.000721588,0.00127918,0.0162429,-0.00179783,0.00170723,0.000759048,0.00118069,-0.0339639,0.000945892,0.000735168,0.0109713,-0.0210837,0.00197414,0.00149731,-0.00787262
12,7,0,0,0,0,0,0,231.8,254,0,0,0,0,0,0,0,231.8,766,0,0.000616494,0.000607147,-0.000170403,0.0156326,0.00194057,0.000791702,0.000835342,0.000341454,0.0489677,0.000526275,-0.000371094,0.0142138,-0.0221136,0.000829735,4.77219e-05,-0.00863556
12,8,0,0,0,0,0,0,231.8,254,0,0,0,0,0,0,0,231.8,766,0,-0.000260887,-0.000346527,0.000249214,0.0157089,0.00445827,0.000600967,0.000911636,-0.000574074,0.050608,0.000526275,0.00046814,0.0151675,-0.0214651,-0.000123939,0.000543633,-0.00802521
12,9,0,0,0,0,0,0,231.8,254,0,0,0,0,0,0,0,231.8,766,0,0.000769082,0.00129379,0.000287361,0.0156326,0.00354275,6.69097e-05,7.24029e-05,0.000341454,-0.0396096,0.000678863,0.000773315,0.013222,-0.0221899,0.000944176,0.00103954,-0.00882629
13,0,0,0,0,0,0,0,231.8,254,0,0,0,0,0,0,0,231.8,766,0,-0.000108299,0.000378265,0.000745125,0.0164337,0.00388607,0.000524673,0.000644607,0.000646629,0.0517142,0.00117477,0.000620727,0.0115435,-0.0207785,0.000333824,0.000391045,-0.00737671
13,1,0,0,0,0,0,0,231.8,254,0,0,0,0,0,0,0,231.8,766,0,-7.01519e-05,-4.13517e-05,-5.59617e-05,0.0153274,0.000719872,0.00056282,0.000530167,-0.00103184,0.0572837,0.00132736,-0.000714417,0.0101702,-0.0219229,-0.000505409,4.77219e-05,-0.00833038
13,2,0,0,0,0,0,0,231.8,254,0,0,0,0,0,0,0,231.8,766,0,0.00130314,0.000874176,0.000134773,0.0167389,0.00110134,0.00117317,0.000835342,0.000150719,-0.0516259,0.00128921,0.000697021,0.00929287,-0.021427,0.00144009,0.00126843,-0.00905518
13,3,0,0,0,0,0,0,231.8,254,0,0,0,0,0,0,0,231.8,766,0,0.000387612,0.000492706,0.000325508,0.0163955,-0.000958595,0.000181351,0.000682754,0.000913658,-0.0128686,0.000488129,8.66698e-05,0.0130694,-0.0219611,0.00124935,0.000886955,-0.00730042
13,4,0,0,0,0,0,0,231.8,254,0,0,0,0,0,0,0,231.8,766,0,0.000807228,0.00095047,0.00093586,0.0163574,0.00201687,0.00132576,-0.00027092,0.000951805,0.00631935,0.000640716,0.000506287,0.0154727,-0.0211981,0.000715294,0.00191692,-0.00916962
13,5,0,0,0,0,0,0,231.8,254,0,0,0,0,0,0,0,231.8,766,0,8.2436e-05,0.000263824,-0.000170403,0.0153274,0.00152096,-9.38424e-06,0.00125496,3.62778e-05,0.11355,0.000488129,-0.000180359,0.0170749,-0.021427,0.000867882,0.00119213,-0.0081015
13,6,0,0,0,0,0,0,231.8,254,0,0,0,0,0,0,0,231.8,766,0,0.000769082,0.000721588,0.000363655,0.015213,0.000376549,-0.00031456,0.000377579,0.000455895,0.161082,0.00201401,0.000239258,0.0153201,-0.0225714,0.000639,-0.000486336,-0.00943665
13,7,0,0,0,0,0,0,231.8,254,0,0,0,0,0,0,0,231.8,766,0,0.0011124,0.00125565,0.00055439,0.0170059,-0.00122562,6.69097e-05,0.000530167,0.00156216,0.133463,0.000869598,0.0016507,0.0166934,-0.0212744,0.000371971,0.00187878,-0.00859741
13,8,0,0,0,0,0,0,231.8,254,0,0,0,0,0,0,0,231.8,766,0,0.000959816,0.0012175,0.000630684,0.01651,-0.00103489,0.000867996,-0.000309067,-1.86916e-06,0.0739539,0.000831451,0.000544433,0.0155871,-0.0208167,0.00147823,-0.000600777,-0.00749115
13,9,0,0,0,0,0,0,231.8,254,0,0,0,0,0,0,0,231.8,766,0,0.000769082,-7.94986e-05,2.03323e-05,0.0160522,-0.000462685,0.000143204,-0.000881271,0.000913658,-0.0824868,-7.78213e-06,0.000353699,0.0139849,-0.0220374,0.000410118,0.00058178,-0.00775818
14,0,0,0,0,0,0,0,231.8,254,0,0,0,0,0,0,0,231.8,766,0,0.000807228,0.000530853,9.66262e-05,0.0157089,0.00133022,0.000867996,0.00186531,0.00125698,-0.0532662,0.0002211,0.000773315,0.0114672,-0.0209692,0.00163082,0.000429192,-0.00833038
14,1,0,0,0,0,0,0,231.8,254,0,0,0,0,0,0,0,231.8,766,0,0.000311318,0.00140823,0.00112659,0.0164718,0.00400051,0.00140205,0.000949783,0.00129513,0.0436271,0.000411835,0.000277405,0.0140612,-0.0212363,0.00113491,0.000925102,-0.00756744
14,2,0,0,0,0,0,0,231.8,254,0,0,0,0,0,0,0,231.8,766,0,0.000883522,0.0011412,-0.00070446,0.0175399,0.00525936,0.00113502,-3.89107e-06,0.000799217,-0.0560891,0.00102219,-0.0002948,0.0166552,-0.0214651,0.0012112,0.000848808,-0.00749115
14,3,0,0,0,0,0,0,231.8,254,0,0,0,0,0,0,0,231.8,766,0,0.000883522,0.000988617,0.000821419,0.0163574,0.00625118,0.000867996,0.00106422,0.00137142,-0.0484216,0.00170883,-0.000218506,0.014252,-0.0225333,0.000867882,8.58689e-05,-0.00714783
14,4,0,0,0,0,0,0,231.8,254,0,0,0,0,0,0,0,231.8,766,0,-0.00022274,0.0012175,0.00055439,0.0155944,0.00327572,0.000333939,-0.000309067,-1.86916e-06,0.0527442,3.03648e-05,-2.77711e-05,0.0157397,-0.0207404,0.000181236,0.000619926,-0.00821594
14,5,0,0,0,0,0,0,231.8,254,0,0,0,0,0,0,0,231.8,766,0,0.000654641,0.0011412,0.00101215,0.0168151,0.00476345,-0.000200119,-0.000423508,0.000303307,-0.0435769,0.000945892,4.85228e-05,0.0145572,-0.021694,0.00140194,8.58689e-05,-0.00894073
14,6,0,0,0,0,0,0,231.8,254,0,0,0,0,0,0,0,231.8,766,0,0.0011124,0.000721588,0.000134773,0.0169296,0.00693783,0.00124947,-0.000576096,0.000379601,-0.0694024,0.00140366,0.000201111,0.0115817,-0.0210455,0.00117306,0.0010014,-0.00913147
14,7,0,0,0,0,0,0,231.8,254,0,0,0,0,0,0,0,231.8,766,0,-0.000337181,0.000569,-0.00020855,0.0157089,0.00388607,0.00094429,0.00011055,-4.00161e-05,-0.0302636,0.000373688,0.000811462,0.0162356,-0.0216559,0.000715294,0.00168804,-0.00875
14,8,0,0,0,0,0,0,231.8,254,0,0,0,0,0,0,0,231.8,766,0,0.0011887,0.000416412,0.000668831,0.0164337,0.00213131,0.000105057,0.00114052,0.000684776,0.00750191,0.00106033,0.000925903,0.0163501,-0.0223425,0.0012875,0.00058178,-0.00848297
14,9,0,0,0,0,0,0,231.8,254,0,0,0,0,0,0,0,231.8,766,0,0.000273171,0.00106491,9.66262e-05,0.0167389,0.00476345,0.00094429,0.000530167,0.000646629,0.0209296,0.000869598,0.0010022,0.0151294,-0.020397,0.00166897,0.000352898,-0.00718597
15,0,0,0,0,0,0,0,231.8,254,0,0,0,0,0,0,0,231.8,766,0,0.000616494,-0.000232087,-0.00020855,0.0147934,0.00895962,0.00056282,-0.000309067,0.000379601,-0.0569665,0.000831451,8.66698e-05,0.0161975,-0.0218848,0.000867882,0.000810661,-0.00947479
15,1,0,0,0,0,0,0,231.8,254,0,0,0,0,0,0,0,231.8,766,0,0.000654641,0.000874176,0.00116474,0.0162048,0.00915035,0.00113502,0.000720901,0.000570335,0.0286353,0.00117477,1.03759e-05,0.0158923,-0.0217322,0.000677147,0.00119213,-0.00695709
15,2,0,0,0,0,0,0,231.8,254,0,0,0,0,0,0,0,231.8,766,0,0.00134129,0.00148453,0.000249214,0.0159759,0.00834927,0.000257645,-0.00027092,0.000989952,0.0236762,0.00189957,0.00123108,0.0172274,-0.0217322,0.000829735,0.000543633,-0.00867371
15,3,0,0,0,0,0,0,231.8,254,0,0,0,0,0,0,0,231.8,766,0,0.000845375,-0.000346527,-1.78147e-05,0.0156707,0.00998959,-0.000390854,-0.000347214,-0.000230751,-0.0473916,0.00117477,0.000429993,0.017113,-0.0225333,-0.000352821,-0.00147816,-0.00920776
15,4,0,0,0,0,0,0,231.8,254,0,0,0,0,0,0,0,231.8,766,0,-0.000451622,-0.000270233,-0.000590019,0.0160522,0.013461,0.000715408,-4.2038e-05,0.000532188,0.0409568,-0.000579987,-0.000142212,0.0166552,-0.0212744,0.000562706,0.000162163,-0.00768188
15,5,0,0,0,0,0,0,231.8,254,0,0,0,0,0,0,0,231.8,766,0,0.000959816,0.00110306,0.00101215,0.0163192,0.0116681,0.000982437,0.00125496,0.000417748,0.0426353,0.00147995,0.00176514,0.0144046,-0.0213126,0.00132565,0.00161175,-0.0101233
15,6,0,0,0,0,0,0,231.8,254,0,0,0,0,0,0,0,231.8,766,0,0.000616494,0.000721588,0.000630684,0.0156707,0.00644192,0.00117317,0.000263138,-4.00161e-05,-0.0462472,0.00113663,-0.0002948,0.014519,-0.0210837,0.000791588,0.00134472,-0.00894073
15,7,0,0,0,0,0,0,231.8,254,0,0,0,0,0,0,0,231.8,766,0,0.000692788,0.000378265,0.000249214,0.0162048,0.0054501,0.000372085,0.000224991,0.000837364,0.0468314,0.000297394,0.000391846,0.0124591,-0.0210837,0.000715294,0.000734367,-0.00825409
15,8,0,0,0,0,0,0,231.8,254,0,0,0,0,0,0,0,231.8,766,0,0.000616494,0.00018753,-0.000590019,0.0163574,0.00636562,0.00124947,0.000797195,0.000837364,0.0541938,0.000907745,-0.000485535,0.010895,-0.0213507,0.000753441,0.000810661,-0.00768188
15,9,0,0,0,0,0,0,231.8,254,0,0,0,0,0,0,0,231.8,766,0,-0.000833091,0.000759735,9.66262e-05,0.0147171,0.0060223,0.000448379,7.24029e-05,-0.000154457,-0.0551354,0.000373688,-0.000218506,0.0117343,-0.0220755,0.000181236,0.000238457,-0.00848297
16,0,0,0,0,0,0,0,231.8,254,0,0,0,0,0,0,0,231.8,766,0,0.0011887,0.000530853,0.000706978,0.0158996,0.00709042,0.000257645,0.000568314,-1.86916e-06,-0.0138985,0.00125107,0.000544433,0.012192,-0.0208167,6.67954e-05,0.000467339,-0.00760559
16,1,0,0,0,0,0,0,231.8,254,0,0,0,0,0,0,0,231.8,766,0,-0.000260887,0.000797882,0.00131733,0.0159378,0.00651821,0.000486526,3.42559e-05,-0.000841103,0.00227577,0.00121292,0.000773315,0.0132602,-0.0213889,0.00132565,0.000963249,-0.00947479
16,2,0,0,0,0,0,0,231.8,254,0,0,0,0,0,0,0,231.8,766,0,0.000387612,0.000797882,0.000783272,0.0169296,0.00442013,0.000906143,0.00011055,0.00026516,0.0601829,0.000831451,0.000887756,0.0137179,-0.0203207,0.00109676,0.00103954,-0.00875
16,3,0,0,0,0,0,0,231.8,254,0,0,0,0,0,0,0,231.8,766,0,0.000311318,-0.000460968,0.000516243,0.0153274,0.00438198,0.000639114,0.00049202,-0.000535927,-0.0148904,0.000411835,-0.0002948,0.0132602,-0.0210074,0.000524559,-0.000524483,-0.00943665
16,4,0,0,0,0,0,0,231.8,254,0,0,0,0,0,0,0,231.8,766,0,0.000769082,0.000378265,0.000821419,0.01651,0.0047253,0.00124947,0.00148384,0.000913658,-0.00848167,0.000488129,0.000925903,0.0142138,-0.0197104,6.67954e-05,0.00107769,-0.00691895
16,5,0,0,0,0,0,0,231.8,254,0,0,0,0,0,0,0,231.8,766,0,-0.000184593,0.00163712,0.0010503,0.0171966,0.00190243,0.00094429,0.000568314,0.000379601,0.0652183,0.00147995,0.000697021,0.0119632,-0.020397,0.00163082,0.000963249,-0.00974182
16,6,0,0,0,0,0,0,231.8,254,0,0,0,0,0,0,0,231.8,766,0,0.000311318,3.49423e-05,-0.000361137,0.0153656,0.00388607,0.000715408,3.42559e-05,-0.000154457,-0.0133263,0.00174698,-0.000828858,0.0129168,-0.0213507,0.000143089,0.000124016,-0.00901703
16,7,0,0,0,0,0,0,231.8,254,0,0,0,0,0,0,0,231.8,766,0,8.2436e-05,0.000645294,0.000363655,0.0148315,0.00514492,0.000257645,0.000835342,0.000379601,-0.00695579,0.000182953,0.000353699,0.0105899,-0.0230292,0.00025753,0.000276604,-0.00920776
16,8,0,0,0,0,0,0,231.8,254,0,0,0,0,0,0,0,231.8,766,0,0.000997963,0.00148453,0.00116474,0.01651,0.00247463,0.000715408,0.000835342,0.000837364,0.0802482,0.000335541,0.000239258,0.0102465,-0.0198248,0.00227932,0.00058178,-0.00756744
16,9,0,0,0,0,0,0,231.8,254,0,0,0,0,0,0,0,231.8,766,0,0.000692788,0.00106491,0.00173695,0.0167389,-0.000119362,0.00113502,0.000759048,0.000570335,-0.00996941,0.00109848,0.00058258,0.00757626,-0.0220755,0.000677147,0.00069622,-0.00852112
17,0,0,0,0,0,0,0,231.8,254,0,0,0,0,0,0,0,231.8,766,0,0.000387612,-0.000460968,-5.59617e-05,0.0158996,0.000872459,0.00056282,0.000759048,0.000455895,-0.0081002,0.00071701,8.66698e-05,0.00952175,-0.0209692,0.000295677,0.00168804,-0.00905518
17,1,0,0,0,0,0,0,231.8,254,0,0,0,0,0,0,0,231.8,766,0,0.0011124,0.00102676,-0.000246697,0.0162429,0.00346645,0.00113502,0.000568314,0.000303307,0.0857032,0.000297394,1.03759e-05,0.0120395,-0.0213889,0.000715294,0.000162163,-0.00676636
17,2,0,0,0,0,0,0,231.8,254,0,0,0,0,0,0,0,231.8,766,0,0.000120583,0.000530853,0.000325508,0.0158615,0.00121578,0.000486526,-3.89107e-06,-0.000345192,-0.0101983,0.000640716,-2.77711e-05,0.0131839,-0.0212744,0.000715294,-0.00018116,-0.00787262
17,3,0,0,0,0,0,0,231.8,254,0,0,0,0,0,0,0,231.8,766,0,0.000196877,0.000149383,0.000287361,0.0160904,0.000414696,-0.000581589,0.000682754,0.000608482,-0.0400674,0.000106659,0.000773315,0.0140994,-0.0208548,0.000639,0.000238457,-0.00947479
17,4,0,0,0,0,0,0,231.8,254,0,0,0,0,0,0,0,231.8,766,0,0.000235024,0.000721588,0.00124104,0.0154419,-0.00324741,0.00094429,0.00148384,7.44248e-05,-0.00470512,0.000831451,0.00096405,0.0187915,-0.0203207,0.000829735,0.000734367,-0.00756744
17,5,0,0,0,0,0,0,231.8,254,0,0,0,0,0,0,0,231.8,766,0,0.000616494,0.000225677,0.000630684,0.01651,-0.00351444,0.000639114,0.00197975,0.000112572,0.0484336,0.000335541,0.00107849,0.0189441,-0.0210455,0.000715294,0.000886955,-0.00802521
17,6,0,0,0,0,0,0,231.8,254,0,0,0,0,0,0,0,231.8,766,0,0.00191349,0.000645294,0.000783272,0.0164337,0.00117764,0.000982437,0.000682754,-0.000154457,0.161272,0.000755157,0.00123108,0.0154727,-0.0204733,0.00144009,-0.000677071,-0.00882629
17,7,0,0,0,0,0,0,231.8,254,0,0,0,0,0,0,0,231.8,766,0,6.14207e-06,-0.000117646,0.00124104,0.0152511,0.00422939,0.00094429,-0.000385361,-0.000574074,0.144945,0.000488129,-0.000142212,0.015549,-0.0200919,2.86484e-05,0.00138287,-0.00970367
17,8,0,0,0,0,0,0,231.8,254,0,0,0,0,0,0,0,231.8,766,0,0.000769082,0.00152267,0.000859566,0.0175399,0.00514492,0.00113502,0.00133125,0.00076107,0.11748,0.00121292,0.00115479,0.0135272,-0.0210837,0.000219383,0.0010014,-0.00787262
17,9,0,0,0,0,0,0,231.8,254,0,0,0,0,0,0,0,231.8,766,0,-0.000451622,0.000645294,0.000325508,0.0157089,0.00346645,0.000410232,0.000186844,-0.000154457,-0.00710838,-0.000312958,0.000658874,0.0136416,-0.022991,0.000486412,-0.000219307,-0.00943665
18,0,0,0,0,0,0,0,231.8,254,0,0,0,0,0,0,0,231.8,766,0,0.000311318,0.00133194,0.00108845,0.0163955,0.00327572,0.000524673,0.00060646,0.00140957,-0.100607,-0.00016037,0.00187958,0.0142901,-0.0210455,-0.000200233,0.00184063,-0.00970367
18,1,0,0,0,0,0,0,231.8,254,0,0,0,0,0,0,0,231.8,766,0,-0.000451622,3.49423e-05,0.000821419,0.0158996,0.000796166,-4.75312e-05,0.000682754,-4.00161e-05,0.0118888,0.00113663,0.000658874,0.0130694,-0.0208929,0.000219383,-0.000219307,-0.00825409
18,2,0,0,0,0,0,0,231.8,254,0,0,0,0,0,0,0,231.8,766,0,8.2436e-05,0.000759735,9.66262e-05,0.0159378,-0.00179783,0.000257645,-0.000919418,-7.81631e-05,0.00990517,0.000907745,0.000124817,0.0183337,-0.0217322,0.000486412,0.00069622,-0.00852112
18,3,0,0,0,0,0,0,231.8,254,0,0,0,0,0,0,0,231.8,766,0,-7.01519e-05,0.000912323,-0.000399284,0.0160904,0.000338402,0.000486526,0.000682754,-7.81631e-05,-0.0875603,0.000907745,0.000925903,0.0160067,-0.0215414,0.000410118,0.000543633,-0.00947479
18,4,0,0,0,0,0,0,231.8,254,0,0,0,0,0,0,0,231.8,766,0,0.000273171,-0.000995026,0.000821419,0.0156326,0.00232204,0.000715408,0.000186844,0.000112572,0.0159324,0.000373688,0.000620727,0.0126117,-0.0207404,0.000867882,0.00111584,-0.00852112
18,5,0,0,0,0,0,0,231.8,254,0,0,0,0,0,0,0,231.8,766,0,0.0005402,0.000492706,-0.000513725,0.0157852,0.000414696,0.000181351,-0.000537949,0.000608482,0.0250114,0.000793304,0.000811462,0.0113528,-0.0220374,0.00124935,0.00115398,-0.00928406
18,6,0,0,0,0,0,0,231.8,254,0,0,0,0,0,0,0,231.8,766,0,0.000463906,0.000378265,0.00139362,0.0162048,-0.00221745,0.00147835,0.000797195,0.000455895,-0.0853478,0.00285324,0.000506287,0.0145572,-0.0207785,0.00147823,0.000886955,-0.00714783
18,7,0,0,0,0,0,0,231.8,254,0,0,0,0,0,0,0,231.8,766,0,0.00015873,0.000988617,0.00120289,0.0159759,-0.000386391,0.00094429,7.24029e-05,0.000150719,-0.0412499,0.0002211,0.000124817,0.0145953,-0.0214651,0.00132565,0.00119213,-0.00928406
18,8,0,0,0,0,0,0,231.8,254,0,0,0,0,0,0,0,231.8,766,0,0.00122685,0.000149383,0.00135548,0.0166626,0.00239834,0.000333939,0.000873489,0.000646629,-0.022062,0.000945892,0.0010022,0.0144427,-0.0211218,0.00117306,0.00153545,-0.00775818
18,9,0,0,0,0,0,0,231.8,254,0,0,0,0,0,0,0,231.8,766,0,0.000196877,-0.000117646,0.0010503,0.0166626,0.0029324,0.000410232,0.000682754,0.000379601,0.0391257,0.000640716,0.000277405,0.00914028,-0.0212744,0.000600853,0.00058178,-0.00875
19,0,0,0,0,0,0,0,231.8,254,0,0,0,0,0,0,0,231.8,766,0,0.000883522,0.000530853,0.00093586,0.0155944,0.00216946,0.00128761,0.000377579,0.000989952,-0.0342309,0.00113663,0.000697021,0.0131839,-0.0209692,0.000791588,0.000238457,-0.00783447
19,1,0,0,0,0,0,0,231.8,254,0,0,0,0,0,0,0,231.8,766,0,0.0005402,-0.000270233,0.0010503,0.0161666,0.00289425,0.000791702,0.000835342,3.62778e-05,-0.0263345,0.000488129,0.00058258,0.0185626,-0.0207404,0.00136379,9.57493e-06,-0.00955109
19,2,0,0,0,0,0,0,231.8,254,0,0,0,0,0,0,0,231.8,766,0,6.14207e-06,-0.000117646,5.84793e-05,0.0149841,0.00209316,0.000524673,0.000568314,0.00026516,0.0507224,-0.000198517,-0.00109589,0.0200885,-0.0212744,2.86484e-05,0.000810661,-0.00875
19,3,0,0,0,0,0,0,231.8,254,0,0,0,0,0,0,0,231.8,766,0,-7.01519e-05,-0.000537262,0.000630684,0.015213,0.00392422,0.000333939,0.000797195,0.000608482,-0.0249993,-0.000312958,0.000620727,0.0160067,-0.022457,0.000562706,0.00203136,-0.00890259
19,4,0,0,0,0,0,0,231.8,254,0,0,0,0,0,0,0,231.8,766,0,0.00198978,0.000645294,0.000439949,0.0163574,0.00426754,0.00117317,0.00121681,0.000417748,-0.0158822,0.00178513,0.000162964,0.0140231,-0.0210455,0.000753441,0.000658073,-0.00718597
19,5,0,0,0,0,0,0,231.8,254,0,0,0,0,0,0,0,231.8,766,0,0.000730935,0.000492706,0.00101215,0.0154419,0.00682339,0.000791702,0.0013694,0.000951805,0.0727714,0.000564422,0.000620727,0.0160449,-0.0220755,0.000181236,0.00153545,-0.00871185
19,6,0,0,0,0,0,0,231.8,254,0,0,0,0,0,0,0,231.8,766,0,0.000196877,-0.000155793,0.000287361,0.0155182,0.00804409,-0.000200119,0.000377579,-0.000421486,-0.0190102,0.000373688,-0.000409241,0.0131839,-0.0219611,0.00113491,0.00103954,-0.0103522
19,7,0,0,0,0,0,0,231.8,254,0,0,0,0,0,0,0,231.8,766,0,-0.000146446,0.000225677,0.00120289,0.0163192,0.00812038,-0.000238266,0.00129311,0.000379601,-0.0145852,0.000907745,0.000544433,0.0139087,-0.0209692,0.000753441,0.00142101,-0.00905518
19,8,0,0,0,0,0,0,231.8,254,0,0,0,0,0,0,0,231.8,766,0,0.000578347,0.000111236,5.84793e-05,0.0160141,0.00888332,6.69097e-05,0.000949783,7.44248e-05,0.0818885,0.000831451,0.000620727,0.0169223,-0.0221136,0.000677147,0.00138287,-0.0093222
19,9,0,0,0,0,0,0,231.8,254,0,0,0,0,0,0,0,231.8,766,0,0.0011124,0.00102676,0.00139362,0.0157852,0.0103329,0.00121132,0.0019416,0.000227013,-0.0132119,0.0015181,0.00134552,0.0195544,-0.0213507,0.000867882,9.57493e-06,-0.00775818
20,0,0,0,0,0,0,0,231.8,254,0,0,0,0,0,0,0,231.8,766,0,0.000883522,-0.000232087,0.000783272,0.0164718,0.012965,0.00128761,0.00098793,0.000837364,-0.0425088,-0.000503693,0.000162964,0.0180285,-0.0205878,0.000219383,0.00130657,-0.0100089
20,1,0,0,0,0,0,0,231.8,254,0,0,0,0,0,0,0,231.8,766,0,4.4289e-05,0.00095047,0.000592537,0.0171585,0.0104473,0.000486526,0.00098793,0.000532188,-0.00577324,-0.000427399,0.000620727,0.0173037,-0.0208167,0.00136379,0.00176434,-0.00848297
20,2,0,0,0,0,0,0,231.8,254,0,0,0,0,0,0,0,231.8,766,0,0.000120583,0.000721588,0.00120289,0.0154037,0.00812038,0.000715408,0.000911636,-4.00161e-05,0.0314201,0.0020903,0.000773315,0.019974,-0.0209311,0.000448265,0.000848808,-0.00710968
20,3,0,0,0,0,0,0,231.8,254,0,0,0,0,0,0,0,231.8,766,0,0.000845375,0.000645294,-0.000780754,0.01548,0.00689968,-4.75312e-05,0.000530167,0.000684776,0.0421394,0.000144806,0.00058258,0.0183337,-0.0218466,0.000181236,0.00145916,-0.00905518
20,4,0,0,0,0,0,0,231.8,254,0,0,0,0,0,0,0,231.8,766,0,8.2436e-05,0.00125565,0.00139362,0.0155182,0.00651821,0.00056282,0.00114052,3.62778e-05,-0.0398385,0.00128921,0.00130737,0.0190203,-0.0211218,0.00140194,0.00111584,-0.00916962
20,5,0,0,0,0,0,0,231.8,254,0,0,0,0,0,0,0,231.8,766,0,-7.01519e-05,0.00095047,0.00120289,0.0165863,0.00773891,0.00147835,0.000568314,7.44248e-05,0.0419486,0.000602569,0.000124817,0.0212329,-0.0212744,0.000753441,0.0015736,-0.00947479
20,6,0,0,0,0,0,0,231.8,254,0,0,0,0,0,0,0,231.8,766,0,0.000387612,-0.00068985,-1.78147e-05,0.015213,0.00384792,-8.56782e-05,0.000148697,-0.00011631,0.0391639,0.000335541,0.00058258,0.0239795,-0.0224951,0.000486412,0.00130657,-0.00848297
20,7,0,0,0,0,0,0,231.8,254,0,0,0,0,0,0,0,231.8,766,0,0.000273171,0.000721588,0.000859566,0.0157089,0.00255093,0.0014402,0.000911636,0.000799217,-0.0370156,0.000907745,-0.000180359,0.0229113,-0.0218848,0.000639,0.000848808,-0.00882629
20,8,0,0,0,0,0,0,231.8,254,0,0,0,0,0,0,0,231.8,766,0,0.000502053,0.00144638,0.000897713,0.0168914,-0.000310097,0.00136391,0.00129311,-0.00103184,0.0496543,0.000869598,0.00180328,0.018143,-0.0202444,0.00159267,0.00115398,-0.00882629
20,9,0,0,0,0,0,0,231.8,254,0,0,0,0,0,0,0,231.8,766,0,0.000883522,-0.000651703,0.000745125,0.0159378,0.00102505,-0.000390854,0.000759048,-0.000307045,0.0505698,0.00071701,-0.000256653,0.014786,-0.0219992,0.000333824,0.000391045,-0.00966553
21,0,0,0,0,0,0,0,231.8,254,0,0,0,0,0,0,0,231.8,766,0,0.000578347,0.000645294,-0.000628166,0.0156707,0.00190243,0.000600967,-0.000118332,0.000951805,-0.0411736,0.000335541,0.000391846,0.0102847,-0.0219992,0.000867882,0.00069622,-0.00863556
21,1,0,0,0,0,0,0,231.8,254,0,0,0,0,0,0,0,231.8,766,0,-0.000108299,-0.00068985,0.000211067,0.0155563,-0.000729713,0.000448379,0.000568314,0.000532188,0.050875,0.000602569,-2.77711e-05,0.0105899,-0.0210455,0.000677147,0.000162163,-0.00909332
21,2,0,0,0,0,0,0,231.8,254,0,0,0,0,0,0,0,231.8,766,0,0.000997963,0.000263824,0.000592537,0.0156326,-0.000538978,0.000753555,0.00121681,0.000112572,0.0576652,0.000907745,0.000887756,0.00334194,-0.022724,0.0012112,0.00058178,-0.00855927
21,3,0,0,0,0,0,0,231.8,254,0,0,0,0,0,0,0,231.8,766,0,0.000807228,0.000454559,0.000592537,0.0170822,0.00346645,0.000181351,0.00114052,0.00129513,-0.0526177,0.000488129,0.000544433,0.00944546,-0.0217322,0.00113491,0.000467339,-0.00787262
21,4,0,0,0,0,0,0,231.8,254,0,0,0,0,0,0,0,231.8,766,0,0.00103611,0.000645294,0.000821419,0.0160141,0.00377163,0.000105057,0.000301285,0.000646629,-0.0141656,0.000755157,0.000162964,0.0132983,-0.0215796,0.000181236,0.00115398,-0.00653748
21,5,0,0,0,0,0,0,231.8,254,0,0,0,0,0,0,0,231.8,766,0,0.000578347,0.000874176,0.000706978,0.016777,0.0041531,0.000448379,0.00110237,-1.86916e-06,0.00540382,0.00102219,0.000697021,0.0176089,-0.0212363,0.000753441,0.000619926,-0.00764374
21,6,0,0,0,0,0,0,231.8,254,0,0,0,0,0,0,0,231.8,766,0,0.00141758,0.00117935,0.000478096,0.0164337,0.0048016,0.00113502,0.00114052,0.00114254,0.117098,0.000411835,0.000773315,0.0175708,-0.0205115,0.00155453,0.00126843,-0.00813965
21,7,0,0,0,0,0,0,231.8,254,0,0,0,0,0,0,0,231.8,766,0,-0.000527916,-0.000842438,0.000363655,0.01651,0.00411495,0.000410232,0.000568314,0.000608482,0.162531,0.000526275,0.000506287,0.0176852,-0.0214651,0.000906029,9.57493e-06,-0.00852112
21,8,0,0,0,0,0,0,231.8,254,0,0,0,0,0,0,0,231.8,766,0,0.000311318,0.000530853,0.000439949,0.0163574,0.00205502,0.00105873,0.000949783,0.00121883,0.137278,0.000907745,0.000162964,0.0158541,-0.0218848,0.00166897,0.000848808,-0.007453
21,9,0,0,0,0,0,0,231.8,254,0,0,0,0,0,0,0,231.8,766,0,0.0017609,0.00117935,0.000745125,0.0173874,0.00358089,0.000333939,0.00178902,0.000913658,0.0765098,0.00186142,0.00195587,0.0130313,-0.0208548,0.000906029,0.000619926,-0.00882629
22,0,0,0,0,0,0,0,231.8,254,0,0,0,0,0,0,0,231.8,766,0,0.000502053,0.00117935,0.00055439,0.0153656,0.00327572,0.000372085,7.24029e-05,0.000837364,-0.0896203,0.00102219,-0.000447388,0.0153964,-0.0214651,0.00113491,0.00103954,-0.00768188
22,1,0,0,0,0,0,0,231.8,254,0,0,0,0,0,0,0,231.8,766,0,0.000463906,-0.000232087,0.000249214,0.0158615,0.00205502,0.000715408,7.24029e-05,0.00114254,-0.052427,-4.59291e-05,0.000277405,0.0133746,-0.021694,0.000753441,0.000772514,-0.00813965
22,2,0,0,0,0,0,0,231.8,254,0,0,0,0,0,0,0,231.8,766,0,0.000349465,0.000149383,0.000706978,0.017044,0.00709042,0.00102058,0.00049202,0.000112572,0.0419868,0.00140366,0.0016507,0.0155108,-0.0203589,0.00166897,0.000925102,-0.00829224
22,3,0,0,0,0,0,0,231.8,254,0,0,0,0,0,0,0,231.8,766,0,0.000349465,0.000301971,0.000859566,0.0169677,0.00960812,0.00140205,0.000453873,0.00140957,-0.0587975,-4.59291e-05,0.000697021,0.0115435,-0.0213507,0.0012112,0.00176434,-0.00901703
22,4,0,0,0,0,0,0,231.8,254,0,0,0,0,0,0,0,231.8,766,0,-0.000260887,0.000721588,0.00055439,0.0157089,0.00506863,0.000486526,0.0013694,0.000227013,-0.0509774,0.000297394,-6.59181e-05,0.00658443,-0.0212363,0.0012875,-0.000486336,-0.00802521
22,5,0,0,0,0,0,0,231.8,254,0,0,0,0,0,0,0,231.8,766,0,0.0011124,-3.20468e-06,-9.41086e-05,0.0164337,0.00560268,0.000867996,0.000797195,0.000989952,0.0535072,0.00106033,-0.000638123,0.0126117,-0.0218085,0.00102047,0.00111584,-0.00840668
22,6,0,0,0,0,0,0,231.8,254,0,0,0,0,0,0,0,231.8,766,0,0.000425759,0.00140823,-0.00032299,0.0158996,0.00831112,0.000677261,0.000377579,0.000646629,-0.0451028,0.000869598,0.000811462,0.0125354,-0.0230292,0.000410118,0.00168804,-0.0068808
22,7,0,0,0,0,0,0,231.8,254,0,0,0,0,0,0,0,231.8,766,0,0.000769082,0.000340118,0.000897713,0.0160522,0.00934109,0.000333939,0.00110237,0.000913658,-0.0713479,0.000831451,-0.000142212,0.011925,-0.0207404,0.000448265,-0.00018116,-0.00619415
22,8,0,0,0,0,0,0,231.8,254,0,0,0,0,0,0,0,231.8,766,0,0.000311318,0.000759735,-5.59617e-05,0.0158996,0.00613674,0.000906143,0.00110237,0.000417748,-0.0319421,-0.000312958,-0.000256653,0.0126117,-0.0206641,0.00117306,0.00161175,-0.00871185
22,9,0,0,0,0,0,0,231.8,254,0,0,0,0,0,0,0,231.8,766,0,0.000807228,0.000530853,0.000516243,0.0158996,0.00434383,0.00113502,0.00125496,0.000646629,0.00857002,0.000793304,0.000239258,0.0128787,-0.0218085,0.00170712,0.00103954,-0.00821594
23,0,0,0,0,0,0,0,231.8,254,0,0,0,0,0,0,0,231.8,766,0,0.000273171,0.000454559,0.00017292,0.0157852,0.00682339,0.000448379,7.24029e-05,0.000532188,0.0200904,-0.000427399,0.000391846,0.00986507,-0.0213126,0.000906029,0.000429192,-0.00829224
23,1,0,0,0,0,0,0,231.8,254,0,0,0,0,0,0,0,231.8,766,0,0.000463906,0.000340118,-0.000475578,0.0163192,0.00594601,0.000448379,0.000377579,0.00110439,-0.0594842,0.000106659,0.000925903,0.0107806,-0.0223425,0.000906029,0.00020031,-0.0081778
23,2,0,0,0,0,0,0,231.8,254,0,0,0,0,0,0,0,231.8,766,0,0.00107426,0.000645294,0.00112659,0.0166244,0.00518307,0.00220314,0.00121681,0.00110439,0.0268043,0.0014418,0.00104034,0.00868252,-0.0205115,0.000867882,0.000772514,-0.00779633
23,3,0,0,0,0,0,0,231.8,254,0,0,0,0,0,0,0,231.8,766,0,6.14207e-06,0.000988617,0.000211067,0.0163574,0.00403866,0.000639114,0.000682754,0.00190548,0.0272239,0.00071701,0.000391846,0.0115817,-0.0216177,0.000791588,0.00107769,-0.00772003
23,4,0,0,0,0,0,0,231.8,254,0,0,0,0,0,0,0,231.8,766,0,0.000730935,0.000569,-0.00020855,0.0165863,0.000758019,0.000791702,-0.00027092,-0.000154457,-0.0490701,0.00102219,0.000353699,0.0129931,-0.0209692,0.000906029,0.000848808,-0.00806335
23,5,0,0,0,0,0,0,231.8,254,0,0,0,0,0,0,0,231.8,766,0,-7.01519e-05,0.000111236,-0.00177258,0.0149078,-0.00221745,0.000524673,-0.000309067,0.000227013,0.0409187,0.0002211,-0.00155365,0.0128405,-0.0231055,0.000219383,-0.00113483,-0.00875
23,6,0,0,0,0,0,0,231.8,254,0,0,0,0,0,0,0,231.8,766,0,0.000311318,0.000378265,0.000974007,0.0162048,-0.00408665,0.00147835,0.00121681,0.0010281,0.0427497,0.000411835,-0.000371094,0.0131076,-0.0210074,0.00102047,0.000124016,-0.00848297
23,7,0,0,0,0,0,0,231.8,254,0,0,0,0,0,0,0,231.8,766,0,-0.000146446,-3.20468e-06,-0.000246697,0.0156326,-0.000386391,0.000257645,-0.00027092,0.000722923,-0.0479638,0.00125107,-0.000599976,0.00952175,-0.0220755,0.000791588,-0.000486336,-0.00733856
23,8,0,0,0,0,0,0,231.8,254,0,0,0,0,0,0,0,231.8,766,0,0.000654641,7.30893e-05,-0.000132256,0.0163574,0.00312313,0.00224129,0.000644607,0.000532188,0.0472511,0.000831451,1.03759e-05,0.0144809,-0.0220374,0.00113491,0.000963249,-0.00676636
23,9,0,0,0,0,0,0,231.8,254,0,0,0,0,0,0,0,231.8,766,0,0.00115055,-7.94986e-05,-0.000895195,0.0151367,-0.002103,0.000677261,0.000911636,0.00076107,0.0545753,0.0002211,8.66698e-05,0.0152438,-0.0221518,0.000829735,0.000543633,-0.00924591
24,0,0,0,0,0,0,0,231.8,254,0,0,0,0,0,0,0,231.8,766,0,0.000959816,0.000492706,0.000897713,0.0160141,-0.000500832,0.000906143,0.00121681,0.000303307,-0.0542199,0.00071701,1.03759e-05,0.0155108,-0.0207785,0.00151638,0.00130657,-0.00722412
24,1,0,0,0,0,0,0,231.8,254,0,0,0,0,0,0,0,231.8,766,0,0.000273171,0.000225677,0.000668831,0.0162048,0.00251278,0.000410232,-0.000576096,0.000303307,-0.0147378,-0.000579987,0.000925903,0.0172274,-0.0211981,0.000982323,4.77219e-05,-0.00749115
24,2,0,0,0,0,0,0,231.8,254,0,0,0,0,0,0,0,231.8,766,0,0.0011887,-0.000460968,-1.78147e-05,0.0160141,0.00842556,0.000333939,0.000835342,0.000532188,0.0006736,0.00125107,-0.000409241,0.0177233,-0.021694,0.00113491,0.00058178,-0.00737671
24,3,0,0,0,0,0,0,231.8,254,0,0,0,0,0,0,0,231.8,766,0,0.000425759,0.00156082,0.00116474,0.0159759,0.00819668,0.000829849,0.000339432,0.000379601,0.0616706,0.000488129,0.000544433,0.0154727,-0.0216559,0.000562706,0.00130657,-0.00768188
24,4,0,0,0,0,0,0,231.8,254,0,0,0,0,0,0,0,231.8,766,0,0.000311318,0.000645294,0.000516243,0.0160522,0.0079678,0.000219498,0.00011055,7.44248e-05,-0.0135934,3.03648e-05,-6.59181e-05,0.0138705,-0.021694,0.000333824,-0.000944099,-0.00741486
24,5,0,0,0,0,0,0,231.8,254,0,0,0,0,0,0,0,231.8,766,0,0.000692788,0.000263824,0.000630684,0.016777,0.00655636,0.00140205,0.00121681,0.00133327,-0.0124108,0.000869598,0.000239258,0.0181048,-0.0210837,0.00178341,0.000391045,-0.00730042
24,6,0,0,0,0,0,0,231.8,254,0,0,0,0,0,0,0,231.8,766,0,0.000845375,0.00095047,0.000401802,0.0163192,0.00483974,0.00117317,0.000835342,0.000570335,0.0664771,0.000640716,-0.000218506,0.0208133,-0.0212363,0.00025753,0.00184063,-0.00657562
24,7,0,0,0,0,0,0,231.8,254,0,0,0,0,0,0,0,231.8,766,0,8.2436e-05,-0.000613556,9.66262e-05,0.0154037,0.00144466,-4.75312e-05,-0.000156479,0.000303307,-0.0141274,-0.000122223,-0.000180359,0.0135653,-0.0226859,0.000448265,0.000658073,-0.00886444
24,8,0,0,0,0,0,0,231.8,254,0,0,0,0,0,0,0,231.8,766,0,0.000273171,0.00156082,0.000134773,0.0161285,0.00224575,0.00163094,0.000911636,0.000188866,-0.00539177,0.000373688,0.000277405,0.0123065,-0.0209692,0.00102047,0.00126843,-0.00821594
24,9,0,0,0,0,0,0,231.8,254,0,0,0,0,0,0,0,231.8,766,0,0.00134129,0.000836029,0.000478096,0.0165863,0.0035046,0.000524673,0.00117867,0.00076107,0.0816596,0.000602569,0.000506287,0.0131076,-0.0235251,0.00102047,0.00195507,-0.0081778
25,0,0,0,0,0,0,0,231.8,254,0,0,0,0,0,0,0,231.8,766,0,0.000883522,0.000454559,0.00101215,0.0163574,0.00434383,0.00109688,0.00060646,0.000494041,-0.0121438,0.00178513,0.000544433,0.0149386,-0.0215796,0.00136379,-0.000295601,-0.00791077
25,1,0,0,0,0,0,0,231.8,254,0,0,0,0,0,0,0,231.8,766,0,-0.00022274,0.00102676,0.000325508,0.0162429,0.00323757,0.000906143,0.00098793,0.000417748,-0.00916832,0.000335541,0.000239258,0.0179904,-0.0221518,-0.000276527,0.00058178,-0.00916962
25,2,0,0,0,0,0,0,231.8,254,0,0,0,0,0,0,0,231.8,766,0,0.00015873,-0.000537262,0.000478096,0.0161285,-0.00111118,6.69097e-05,0.000377579,0.000227013,0.0855506,0.000526275,-0.000332947,0.0149386,-0.0207404,0.000104942,-0.00121113,-0.00791077
25,3,0,0,0,0,0,0,231.8,254,0,0,0,0,0,0,0,231.8,766,0,-0.000489769,-0.00019394,0.00127918,0.0168533,-0.000119362,0.00136391,0.000377579,-0.00011631,-0.0105798,0.000488129,-0.000409241,0.0149386,-0.0205115,6.67954e-05,0.00149731,-0.0075293
25,4,0,0,0,0,0,0,231.8,254,0,0,0,0,0,0,0,231.8,766,0,0.000692788,0.000797882,0.00017292,0.0162811,0.00274166,0.0014402,0.000301285,0.000417748,-0.0413262,0.00106033,0.00096405,0.01944,-0.0210074,0.000143089,0.000505486,-0.00829224
25,5,0,0,0,0,0,0,231.8,254,0,0,0,0,0,0,0,231.8,766,0,0.000463906,0.000530853,0.000363655,0.0158615,0.0028561,0.00117317,0.000835342,-0.000383339,-0.00520103,0.000106659,-0.000218506,0.0193255,-0.0208929,0.000753441,0.000848808,-0.00779633
25,6,0,0,0,0,0,0,231.8,254,0,0,0,0,0,0,0,231.8,766,0,-0.000337181,7.30893e-05,0.000363655,0.0160522,0.00468716,0.00124947,0.000301285,0.000684776,0.049311,0.0002211,0.000239258,0.0167697,-0.0205115,0.00132565,0.00153545,-0.00901703
25,7,0,0,0,0,0,0,231.8,254,0,0,0,0,0,0,0,231.8,766,0,0.00107426,0.000454559,9.66262e-05,0.0163955,0.00564083,0.000257645,0.00117867,0.000684776,0.16318,0.000488129,0.0010022,0.0144809,-0.0210455,0.000829735,0.00252728,-0.00794891
25,8,0,0,0,0,0,0,231.8,254,0,0,0,0,0,0,0,231.8,766,0,-0.000642356,0.000874176,0.000706978,0.0151748,0.00384792,0.000600967,3.42559e-05,-0.000345192,0.146052,0.00071701,-6.59181e-05,0.00925472,-0.0208167,0.00102047,0.00058178,-0.00890259
25,9,0,0,0,0,0,0,231.8,254,0,0,0,0,0,0,0,231.8,766,0,0.00122685,-0.000155793,-0.000170403,0.0155944,0.00571712,0.000600967,0.00117867,0.000989952,0.117441,-0.000885163,0.000658874,0.0124591,-0.0208929,0.0012112,0.000734367,-0.00875
26,0,0,0,0,0,0,0,231.8,254,0,0,0,0,0,0,0,231.8,766,0,0.000578347,0.000988617,0.00162251,0.0154037,0.00300869,0.00147835,0.00098793,0.000303307,-0.00707024,0.00125107,0.00130737,0.0158923,-0.0196341,0.00178341,0.000886955,-0.00840668
26,1,0,0,0,0,0,0,231.8,254,0,0,0,0,0,0,0,231.8,766,0,0.0005402,0.000530853,-1.78147e-05,0.0152511,-0.000386391,-0.000200119,0.000224991,-0.000383339,-0.102972,0.000259247,-0.00113403,0.01738,-0.0239066,-0.000505409,0.000238457,-0.00852112
26,2,0,0,0,0,0,0,231.8,254,0,0,0,0,0,0,0,231.8,766,0,0.00126499,-0.000232087,2.03323e-05,0.0160522,0.0016354,0.000448379,0.00156013,-7.81631e-05,0.0123466,0.000984039,0.000697021,0.0167315,-0.0215796,0.000524559,0.000772514,-0.00707153
26,3,0,0,0,0,0,0,231.8,254,0,0,0,0,0,0,0,231.8,766,0,0.000311318,0.000874176,0.000821419,0.0165481,0.00255093,0.00109688,0.00121681,0.000570335,0.0094474,0.00174698,0.0016507,0.0149768,-0.0210074,0.000791588,0.00130657,-0.00878815
26,4,0,0,0,0,0,0,231.8,254,0,0,0,0,0,0,0,231.8,766,0,-7.01519e-05,0.00159897,0.000706978,0.0160522,0.0029324,0.00056282,-0.000804977,-1.86916e-06,-0.0875603,0.000488129,0.000315552,0.0131457,-0.0211981,0.00102047,-0.000219307,-0.00894073
26,5,0,0,0,0,0,0,231.8,254,0,0,0,0,0,0,0,231.8,766,0,-0.000489769,0.00102676,0.0010503,0.0167007,0.00262722,0.000677261,0.00156013,0.000379601,0.0157035,0.00197586,0.00210846,0.012955,-0.0205878,0.000753441,0.000886955,-0.00916962
26,6,0,0,0,0,0,0,231.8,254,0,0,0,0,0,0,0,231.8,766,0,0.000616494,0.00102676,-9.41086e-05,0.0155563,0.00400051,0.000677261,0.000568314,-4.00161e-05,0.0255836,0.000335541,0.000429993,0.0127261,-0.0217322,-0.000276527,0.00164989,-0.00779633
26,7,0,0,0,0,0,0,231.8,254,0,0,0,0,0,0,0,231.8,766,0,0.000730935,0.000569,0.000668831,0.0150985,0.00274166,0.000486526,0.000377579,0.00026516,-0.0863396,-8.40761e-05,0.000620727,0.0121539,-0.0208167,0.000371971,0.000543633,-0.00867371
26,8,0,0,0,0,0,0,231.8,254,0,0,0,0,0,0,0,231.8,766,0,0.000578347,0.000645294,0.00131733,0.0162429,0.00167355,0.000982437,0.0013694,0.000455895,-0.0410592,0.00220474,0.000811462,0.0157779,-0.0204352,0.000753441,0.000772514,-0.00722412
26,9,0,0,0,0,0,0,231.8,254,0,0,0,0,0,0,0,231.8,766,0,0.000387612,0.00095047,0.000706978,0.0159378,0.00266537,0.00113502,0.000682754,-4.00161e-05,-0.0226723,0.00159439,0.000277405,0.0161593,-0.0209692,0.00109676,0.00164989,-0.00836853
27,0,0,0,0,0,0,0,231.8,254,0,0,0,0,0,0,0,231.8,766,0,0.00122685,-0.000499115,0.000478096,0.0157089,0.00140652,0.000372085,0.00114052,0.00076107,0.0393546,0.000182953,0.0010022,0.0147097,-0.0219992,0.000219383,0.00058178,-0.00840668
27,1,0,0,0,0,0,0,231.8,254,0,0,0,0,0,0,0,231.8,766,0,0.000654641,0.00110306,0.000401802,0.015213,0.00243649,0.00136391,0.000911636,0.000455895,-0.0353753,0.00071701,0.000277405,0.0173419,-0.0204352,0.00102047,0.00115398,-0.00726227
27,2,0,0,0,0,0,0,231.8,254,0,0,0,0,0,0,0,231.8,766,0,0.000845375,0.00095047,0.000630684,0.0155182,0.00201687,0.000143204,-4.2038e-05,0.00076107,-0.0253426,0.000182953,0.000887756,0.0139087,-0.0212363,-0.000162086,0.000391045,-0.0101233
27,3,0,0,0,0,0,0,231.8,254,0,0,0,0,0,0,0,231.8,766,0,-0.000375328,0.000149383,0.000706978,0.0158615,0.00277981,0.000639114,0.000415726,-0.00137516,0.0519813,0.00102219,0.000239258,0.0140612,-0.0210074,0.000371971,-0.000104866,-0.00833038
27,4,0,0,0,0,0,0,231.8,254,0,0,0,0,0,0,0,231.8,766,0,0.00122685,0.000263824,0.00124104,0.0164718,0.0040768,0.000982437,0.000835342,0.000989952,-0.0256097,0.000678863,0.00111664,0.0158541,-0.0210455,0.0012875,0.00153545,-0.00749115
27,5,0,0,0,0,0,0,231.8,254,0,0,0,0,0,0,0,231.8,766,0,0.000616494,-3.20468e-06,-0.000170403,0.0162048,0.00159725,0.000715408,0.00163643,-0.00011631,-0.0176751,0.000411835,0.000697021,0.0163882,-0.0222281,0.000524559,0.000619926,-0.00886444
27,6,0,0,0,0,0,0,231.8,254,0,0,0,0,0,0,0,231.8,766,0,0.000273171,0.000607147,-0.00070446,0.0149841,0.00575527,-9.38424e-06,0.000377579,-0.000421486,0.0725425,0.0002211,-0.00227844,0.0194018,-0.0217322,0.000143089,0.000810661,-0.00768188
27,7,0,0,0,0,0,0,231.8,254,0,0,0,0,0,0,0,231.8,766,0,0.000845375,0.000530853,0.000325508,0.0154419,0.00400051,-0.000123825,0.000835342,0.000722923,-0.0196206,0.000106659,0.000506287,0.0142901,-0.021427,0.00136379,0.000314751,-0.00833038
27,8,0,0,0,0,0,0,231.8,254,0,0,0,0,0,0,0,231.8,766,0,0.000769082,-0.000155793,0.00055439,0.0160904,0.00457272,0.000448379,0.000568314,0.000494041,-0.0133645,0.000373688,-0.0002948,0.0110858,-0.0221518,-4.76455e-05,0.00119213,-0.00825409
27,9,0,0,0,0,0,0,231.8,254,0,0,0,0,0,0,0,231.8,766,0,8.2436e-05,-3.20468e-06,0.000363655,0.0150222,0.00892147,0.00124947,0.00106422,0.000379601,0.0826896,0.000106659,8.66698e-05,0.0109332,-0.0213889,0.000104942,0.00058178,-0.00783447
28,0,0,0,0,0,0,0,231.8,254,0,0,0,0,0,0,0,231.8,766,0,0.0011887,0.000301971,0.00112659,0.0159759,0.00838741,0.000448379,0.000873489,0.000341454,-0.0132882,0.000640716,0.00058258,0.015816,-0.0208167,0.00144009,-0.000143013,-0.00859741
28,1,0,0,0,0,0,0,231.8,254,0,0,0,0,0,0,0,231.8,766,0,0.000654641,0.00102676,0.000592537,0.0166244,0.00895962,0.000639114,0.000263138,0.000722923,-0.0417458,0.000259247,-0.000409241,0.0158923,-0.0208548,0.000906029,0.000429192,-0.00836853
28,2,0,0,0,0,0,0,231.8,254,0,0,0,0,0,0,0,231.8,766,0,-0.000108299,0.000225677,0.000363655,0.015747,0.00476345,0.000333939,0.000797195,-0.000688515,-0.006231,0.000793304,0.0010022,0.0144809,-0.021427,0.000333824,0.000925102,-0.010314
28,3,0,0,0,0,0,0,231.8,254,0,0,0,0,0,0,0,231.8,766,0,0.00172276,7.30893e-05,0.000974007,0.0158615,0.00617489,0.000524673,0.00125496,0.000303307,0.0345863,0.000945892,0.000658874,0.0143664,-0.0210837,0.00109676,0.00115398,-0.00825409
28,4,0,0,0,0,0,0,231.8,254,0,0,0,0,0,0,0,231.8,766,0,0.00103611,0.000988617,0.000668831,0.0156326,0.00956997,0.00102058,0.00098793,0.000188866,0.043856,0.000640716,0.000162964,0.0144809,-0.02013,0.00117306,0.00107769,-0.00794891
28,5,0,0,0,0,0,0,231.8,254,0,0,0,0,0,0,0,231.8,766,0,0.000235024,0.000111236,0.000706978,0.0149078,0.00857815,-0.000123825,0.000911636,-7.81631e-05,-0.0405633,0.000793304,-0.00132477,0.0136416,-0.0222662,-0.000390968,0.000810661,-0.00852112
28,6,0,0,0,0,0,0,231.8,254,0,0,0,0,0,0,0,231.8,766,0,0.0011124,0.000797882,0.00139362,0.0168151,0.00968441,0.00094429,0.00117867,-0.000345192,0.0427116,0.0014418,0.000925903,0.0123828,-0.02116,0.00155453,-0.000677071,-0.00913147
28,7,0,0,0,0,0,0,231.8,254,0,0,0,0,0,0,0,231.8,766,0,0.000997963,0.000301971,0.000439949,0.0165863,0.00937923,0.00102058,0.000873489,0.000455895,0.0388969,0.000373688,0.00119293,0.0110858,-0.0213507,0.00124935,0.000619926,-0.00848297
28,8,0,0,0,0,0,0,231.8,254,0,0,0,0,0,0,0,231.8,766,0,0.000387612,3.49423e-05,2.03323e-05,0.0155563,0.00579342,0.000372085,0.00049202,0.000722923,-0.0381982,0.000869598,-0.00140106,0.00952175,-0.021694,0.000143089,0.000772514,-0.00890259
28,9,0,0,0,0,0,0,231.8,254,0,0,0,0,0,0,0,231.8,766,0,0.000692788,0.000607147,0.000783272,0.0166244,0.00277981,-0.000161972,0.00060646,0.000532188,0.0510276,0.000297394,0.000239258,0.00879696,-0.0215414,-0.000123939,0.000238457,-0.00920776
29,0,0,0,0,0,0,0,231.8,254,0,0,0,0,0,0,0,231.8,766,0,0.00191349,0.000225677,0.000859566,0.0159759,0.00476345,0.00132576,0.000377579,0.000875511,0.0514472,0.000869598,0.00130737,0.011391,-0.0213507,0.00174526,0.00107769,-0.00924591
29,1,0,0,0,0,0,0,231.8,254,0,0,0,0,0,0,0,231.8,766,0,8.2436e-05,0.000111236,0.000706978,0.0165481,-0.000195656,0.000524673,0.00125496,-0.000230751,-0.0425088,0.000945892,0.00138367,0.0176471,-0.0210455,0.000143089,0.00069622,-0.00882629
29,2,0,0,0,0,0,0,231.8,254,0,0,0,0,0,0,0,231.8,766,0,0.000807228,0.000378265,0.000974007,0.0158233,-0.00114933,0.00105873,0.00060646,0.000455895,0.0518668,-0.000274811,-0.000104065,0.0193637,-0.0215796,0.000295677,0.00069622,-0.00882629
29,3,0,0,0,0,0,0,231.8,254,0,0,0,0,0,0,0,231.8,766,0,8.2436e-05,0.000836029,0.000363655,0.0168914,0.00373348,0.000333939,0.00098793,0.000532188,0.0580085,-0.000274811,0.000658874,0.0133746,-0.0208929,0.00117306,0.00058178,-0.00859741
29,4,0,0,0,0,0,0,231.8,254,0,0,0,0,0,0,0,231.8,766,0,-3.20049e-05,0.000149383,5.84793e-05,0.0150222,0.00453457,0.000906143,0.000148697,-0.000612221,-0.0539147,0.000793304,0.000429993,0.0129931,-0.021694,0.000333824,-0.00018116,-0.00882629
29,5,0,0,0,0,0,0,231.8,254,0,0,0,0,0,0,0,231.8,766,0,0.00168461,0.000759735,5.84793e-05,0.0165481,0.00266537,0.00094429,0.00106422,0.000837364,-0.0140511,0.0002211,0.00138367,0.0163882,-0.0221136,0.000982323,0.000658073,-0.00825409
29,6,0,0,0,0,0,0,231.8,254,0,0,0,0,0,0,0,231.8,766,0,0.000807228,0.0012175,0.00108845,0.0160522,0.0022076,0.000181351,0.000530167,-0.000154457,0.00532753,0.00170883,0.000697021,0.0170749,-0.021427,0.00159267,0.000238457,-0.00829224
29,7,0,0,0,0,0,0,231.8,254,0,0,0,0,0,0,0,231.8,766,0,0.000654641,-0.000232087,0.000363655,0.01548,0.00579342,2.87627e-05,0.00049202,0.00076107,0.11767,0.000831451,0.000544433,0.0162356,-0.022724,-0.000581703,0.00176434,-0.00722412
29,8,0,0,0,0,0,0,231.8,254,0,0,0,0,0,0,0,231.8,766,0,0.000235024,0.000645294,0.000706978,0.0165481,0.00846371,0.000753555,0.00114052,0.000417748,0.165125,0.00132736,0.000391846,0.0143283,-0.0215796,0.000906029,0.000429192,-0.00920776
29,9,0,0,0,0,0,0,231.8,254,0,0,0,0,0,0,0,231.8,766,0,0.000616494,0.00133194,0.000630684,0.0170822,0.00583157,0.00155464,0.00140755,0.00076107,0.13579,6.85118e-05,0.00119293,0.0162738,-0.0207785,0.00147823,0.00149731,-0.00871185
30,0,0,0,0,0,0,0,231.8,254,0,0,0,0,0,0,0,231.8,766,0,-0.00022274,0.000836029,9.66262e-05,0.0153274,0.00335201,0.000410232,0.000949783,0.00026516,0.0734199,0.000335541,4.85228e-05,0.0165789,-0.0216177,0.00140194,0.000276604,-0.00962738
30,1,0,0,0,0,0,0,231.8,254,0,0,0,0,0,0,0,231.8,766,0,0.000196877,-0.000613556,0.000783272,0.0150985,0.00236019,2.87627e-05,0.000415726,0.000303307,-0.0857674,0.000831451,0.000315552,0.0156634,-0.0220374,0.0012875,0.000391045,-0.00821594
30,2,0,0,0,0,0,0,231.8,254,0,0,0,0,0,0,0,231.8,766,0,0.000959816,0.00125565,-0.000132256,0.017044,-0.000920448,0.000715408,0.000873489,0.000532188,-0.0561272,0.000564422,0.00134552,0.0157016,-0.0218848,0.00105862,0.0010014,-0.00905518
30,3,0,0,0,0,0,0,231.8,254,0,0,0,0,0,0,0,231.8,766,0,0.000692788,-0.000537262,-0.00020855,0.0146026,0.000185814,-0.000505295,0.000873489,-0.000612221,0.042826,0.000182953,-0.000599976,0.014786,-0.0212363,0.000143089,0.00103954,-0.00875
30,4,0,0,0,0,0,0,231.8,254,0,0,0,0,0,0,0,231.8,766,0,0.00103611,0.00175156,0.00120289,0.0163192,0.00209316,0.00121132,0.000148697,0.000837364,-0.0587975,0.00109848,-0.000104065,0.0173419,-0.0209692,0.00117306,0.00119213,-0.00787262
30,5,0,0,0,0,0,0,231.8,254,0,0,0,0,0,0,0,231.8,766,0,0.000387612,0.000378265,0.00093586,0.0163574,0.000719872,0.00056282,0.000568314,0.000341454,-0.0522363,0.00117477,1.03759e-05,0.0150531,-0.0223425,0.000753441,0.00153545,-0.00806335
30,6,0,0,0,0,0,0,231.8,254,0,0,0,0,0,0,0,231.8,766,0,0.00115055,0.000263824,0.00112659,0.0166626,-0.000653419,0.000410232,0.000263138,0.000989952,0.0539649,0.00102219,0.000735168,0.0153201,-0.0221136,0.000562706,0.000772514,-0.0068045
30,7,0,0,0,0,0,0,231.8,254,0,0,0,0,0,0,0,231.8,766,0,0.000387612,0.000797882,0.00055439,0.0152893,0.00171169,0.000829849,0.000148697,-0.000574074,-0.0458657,0.000106659,0.000773315,0.0165408,-0.0226477,0.000677147,0.00020031,-0.00970367
30,8,0,0,0,0,0,0,231.8,254,0,0,0,0,0,0,0,231.8,766,0,0.000654641,-0.000117646,-5.59617e-05,0.0158233,0.00167355,-0.000505295,0.00178902,0.000951805,-0.072683,6.85118e-05,0.000239258,0.0174563,-0.0217322,0.000639,-0.00018116,-0.00977997
30,9,0,0,0,0,0,0,231.8,254,0,0,0,0,0,0,0,231.8,766,0,0.00107426,0.00125565,0.000745125,0.0164337,0.00445827,0.00128761,0.000911636,0.000875511,-0.0310647,0.000755157,0.000697021,0.0130694,-0.0213889,0.00140194,0.000543633,-0.00802521
31,0,0,0,0,0,0,0,231.8,254,0,0,0,0,0,0,0,231.8,766,0,0.000578347,0.000912323,0.000249214,0.0163192,0.00384792,0.000639114,0.000530167,0.000799217,0.00815041,0.00125107,0.00058258,0.0106662,-0.0225333,0.00189785,0.00210766,-0.00871185
31,1,0,0,0,0,0,0,231.8,254,0,0,0,0,0,0,0,231.8,766,0,0.0011124,7.30893e-05,-9.41086e-05,0.0156326,0.00579342,-0.000238266,0.000415726,0.000989952,0.0207008,0.00071701,0.00104034,0.00292232,-0.02116,0.000829735,0.000162163,-0.00871185
31,2,0,0,0,0,0,0,231.8,254,0,0,0,0,0,0,0,231.8,766,0,0.000959816,0.00095047,0.00120289,0.0156707,0.00766262,0.000181351,0.000148697,0.000684776,-0.0592553,0.0002211,0.000124817,-1.4992e-05,-0.0209311,0.000448265,0.000848808,-0.00794891
31,3,0,0,0,0,0,0,231.8,254,0,0,0,0,0,0,0,231.8,766,0,0.00115055,0.00144638,0.000249214,0.0167007,0.00598415,0.00117317,0.00049202,0.000227013,0.0274528,0.000373688,-6.59181e-05,0.0128024,-0.0215796,0.000982323,0.00191692,-0.00894073
31,4,0,0,0,0,0,0,231.8,254,0,0,0,0,0,0,0,231.8,766,0,-0.000337181,0.000607147,0.000439949,0.0157089,0.00449642,0.000219498,0.000263138,0.000112572,0.0264991,0.000907745,0.000429993,0.0214236,-0.0224188,0.000181236,0.00020031,-0.00875
31,5,0,0,0,0,0,0,231.8,254,0,0,0,0,0,0,0,231.8,766,0,0.00130314,0.00167526,0.000859566,0.0163955,0.00583157,0.00151649,0.000453873,0.00156216,-0.048536,0.000945892,0.00153625,0.0150531,-0.0216177,0.00136379,0.000543633,-0.0101996
31,6,0,0,0,0,0,0,231.8,254,0,0,0,0,0,0,0,231.8,766,0,0.000235024,0.000416412,0.000897713,0.0171585,0.00403866,0.00117317,0.00114052,0.000570335,0.0406516,0.00109848,0.00153625,0.0129168,-0.02013,0.00117306,0.000810661,-0.00897888
31,7,0,0,0,0,0,0,231.8,254,0,0,0,0,0,0,0,231.8,766,0,0.000235024,-0.000575409,0.000974007,0.0159378,0.00255093,0.00132576,7.24029e-05,-1.86916e-06,0.0435889,0.00163254,-0.000142212,0.0111239,-0.0212363,0.00117306,0.00172619,-0.00920776
31,8,0,0,0,0,0,0,231.8,254,0,0,0,0,0,0,0,231.8,766,0,0.000387612,-0.000232087,-0.000513725,0.0162811,0.00178799,0.000372085,0.000301285,0.000227013,-0.0488412,3.03648e-05,0.000811462,0.0112384,-0.0220755,0.000753441,0.000772514,-0.00775818
31,9,0,0,0,0,0,0,231.8,254,0,0,0,0,0,0,0,231.8,766,0,0.000273171,0.00144638,0.000287361,0.0155563,0.00461086,0.00163094,0.000911636,-0.000268898,0.0475562,0.00102219,-0.00178253,0.0152819,-0.0207404,0.000791588,-0.000104866,-0.00768188
32,0,0,0,0,0,0,0,231.8,254,0,0,0,0,0,0,0,231.8,766,0,0.000654641,0.00125565,0.000325508,0.0151367,0.00804409,-4.75312e-05,0.00049202,0.000150719,0.0543082,0.000678863,0.00130737,0.0165789,-0.0219611,0.000791588,0.000467339,-0.00913147
32,1,0,0,0,0,0,0,231.8,254,0,0,0,0,0,0,0,231.8,766,0,0.000959816,0.000569,-0.000475578,0.0152511,0.00735744,-0.000352707,0.000453873,0.000989952,-0.0558221,0.00125107,1.03759e-05,0.0175708,-0.022724,0.000906029,-2.8572e-05,-0.00871185
32,2,0,0,0,0,0,0,231.8,254,0,0,0,0,0,0,0,231.8,766,0,0.00015873,0.000378265,0.000478096,0.0172348,0.00903591,0.00151649,0.000224991,0.000989952,-0.0152337,-0.000198517,0.00046814,0.016846,-0.0212363,0.000448265,0.000619926,-0.00772003
32,3,0,0,0,0,0,0,231.8,254,0,0,0,0,0,0,0,231.8,766,0,0.000769082,0.000416412,5.84793e-05,0.0158615,0.0103329,2.87627e-05,7.24029e-05,7.44248e-05,0.00128395,0.00125107,-0.000142212,0.0150912,-0.0217322,0.00124935,-0.000333748,-0.00859741
32,4,0,0,0,0,0,0,231.8,254,0,0,0,0,0,0,0,231.8,766,0,0.000425759,0.000874176,0.000745125,0.0158996,0.0104092,0.00113502,0.000415726,0.000455895,0.0640739,0.000297394,0.000925903,0.0153964,-0.0215033,0.000333824,0.000772514,-0.0101996
32,5,0,0,0,0,0,0,231.8,254,0,0,0,0,0,0,0,231.8,766,0,0.000387612,-3.20468e-06,0.000478096,0.0158996,0.0106381,0.000753555,0.000797195,0.00125698,-0.0138223,0.000526275,0.000735168,0.014519,-0.0213126,-9.49856e-06,0.000314751,-0.00714783
32,6,0,0,0,0,0,0,231.8,254,0,0,0,0,0,0,0,231.8,766,0,0.00137943,0.000645294,0.00188953,0.0169296,0.00911221,0.00121132,0.00049202,0.000646629,-0.0118768,0.0014418,0.00161255,0.019707,-0.0209692,0.00136379,0.000543633,-0.00772003
32,7,0,0,0,0,0,0,231.8,254,0,0,0,0,0,0,0,231.8,766,0,0.000502053,0.000797882,-0.000895195,0.01651,0.0117062,0.000982437,0.00011055,0.000379601,0.0659431,0.000640716,-0.000485535,0.0194018,-0.0216559,0.00105862,0.0015736,-0.00829224
32,8,0,0,0,0,0,0,231.8,254,0,0,0,0,0,0,0,231.8,766,0,8.2436e-05,3.49423e-05,0.000134773,0.0152893,0.0100277,0.000486526,0.000453873,0.000951805,-0.0136697,0.000678863,0.000849609,0.00776699,-0.0217322,0.000753441,0.000772514,-0.00909332
32,9,0,0,0,0,0,0,231.8,254,0,0,0,0,0,0,0,231.8,766,0,0.00187534,0.0011412,0.000897713,0.0173874,0.00655636,0.00140205,0.000148697,0.000951805,-0.00737541,0.00071701,-0.000485535,0.0110858,-0.0210455,0.00132565,0.0010014,-0.00695709
33,0,0,0,0,0,0,0,231.8,254,0,0,0,0,0,0,0,231.8,766,0,4.4289e-05,-0.000117646,-9.41086e-05,0.0152511,0.00331387,0.000372085,0.000568314,-0.000459633,0.0809348,0.00071701,-0.000447388,0.0202411,-0.022991,0.00132565,0.00103954,-0.00829224
33,1,0,0,0,0,0,0,231.8,254,0,0,0,0,0,0,0,231.8,766,0,0.000463906,0.000301971,0.000516243,0.0155944,0.0035046,0.000295792,0.000186844,-4.00161e-05,-0.0130975,0.000907745,0.00046814,0.0284045,-0.02116,-0.000276527,0.000810661,-0.0081778
33,2,0,0,0,0,0,0,231.8,254,0,0,0,0,0,0,0,231.8,766,0,8.2436e-05,-7.94986e-05,0.000287361,0.0154419,0.00308498,0.000410232,0.000415726,-0.000574074,-0.00977867,0.000907745,0.000124817,0.0231784,-0.0211218,0.00117306,0.000352898,-0.00813965
33,3,0,0,0,0,0,0,231.8,254,0,0,0,0,0,0,0,231.8,766,0,0.000196877,0.000607147,0.000668831,0.0156707,0.00277981,0.000600967,0.000263138,0.00114254,0.0861991,0.00106033,-0.0002948,0.0132602,-0.0223425,0.000486412,0.00210766,-0.00936035
33,4,0,0,0,0,0,0,231.8,254,0,0,0,0,0,0,0,231.8,766,0,0.00015873,0.000530853,0.000745125,0.0163574,0.00194057,0.000867996,0.00049202,-0.00049778,-0.0105416,0.0020903,0.00138367,0.011391,-0.0221518,0.00124935,0.00115398,-0.00775818
33,5,0,0,0,0,0,0,231.8,254,0,0,0,0,0,0,0,231.8,766,0,0.000463906,0.000530853,0.000211067,0.0157852,0.000223961,0.000715408,0.000797195,0.000150719,-0.0434243,0.000182953,0.000315552,0.0131839,-0.0219229,0.000562706,0.000162163,-0.0109244
33,6,0,0,0,0,0,0,231.8,254,0,0,0,0,0,0,0,231.8,766,0,0.0011887,0.0012175,-0.000246697,0.0168914,0.00369534,0.000791702,0.0013694,0.00133327,-0.00470512,0.000373688,0.000697021,0.0132983,-0.0208929,0.00147823,0.00069622,-0.00768188
33,7,0,0,0,0,0,0,231.8,254,0,0,0,0,0,0,0,231.8,766,0,-3.20049e-05,-7.94986e-05,0.0010503,0.0156326,-4.92088e-06,0.000829849,0.000301285,3.62778e-05,0.049578,0.00102219,-0.000409241,0.0127642,-0.0200156,0.000448265,-0.000333748,-0.00615601
33,8,0,0,0,0,0,0,231.8,254,0,0,0,0,0,0,0,231.8,766,0,0.000997963,0.00148453,-9.41086e-05,0.0165481,-0.0034763,0.000372085,0.000911636,0.00076107,0.164057,0.000869598,0.000620727,0.0124591,-0.0216559,0.000562706,0.00241283,-0.0081778
33,9,0,0,0,0,0,0,231.8,254,0,0,0,0,0,0,0,231.8,766,0,-0.000299034,0.000149383,0.000516243,0.0144882,-0.00416294,0.000524673,-8.0185e-05,0.00026516,0.146662,0.000793304,-0.000409241,0.0129168,-0.0212744,0.00025753,0.000848808,-0.0101233
34,0,0,0,0,0,0,0,231.8,254,0,0,0,0,0,0,0,231.8,766,0,8.2436e-05,0.000988617,0.000745125,0.0164337,-0.00149265,0.000829849,0.000644607,0.000951805,0.119044,-0.000503693,-0.0002948,0.0119632,-0.0219992,0.00025753,0.000925102,-0.0081778
34,1,0,0,0,0,0,0,231.8,254,0,0,0,0,0,0,0,231.8,766,0,0.0011124,0.000454559,0.00120289,0.0169296,-0.00164524,0.000906143,0.0013694,-1.86916e-06,-0.00733726,0.00178513,0.000887756,0.014786,-0.021694,0.00216488,0.00153545,-0.00798706
34,2,0,0,0,0,0,0,231.8,254,0,0,0,0,0,0,0,231.8,766,0,-7.01519e-05,0.000683441,-1.78147e-05,0.0157852,0.00125393,0.000372085,-0.000614243,0.000227013,-0.103964,0.00102219,-0.000714417,0.0149005,-0.0212744,-0.00100132,0.000848808,-0.00813965
34,3,0,0,0,0,0,0,231.8,254,0,0,0,0,0,0,0,231.8,766,0,6.14207e-06,0.000607147,0.00017292,0.0155182,0.00346645,0.000105057,-4.2038e-05,-0.000154457,0.0100959,-0.000465546,0.000429993,0.0120395,-0.0221518,-4.76455e-05,-0.000410042,-0.0093222
34,4,0,0,0,0,0,0,231.8,254,0,0,0,0,0,0,0,231.8,766,0,0.00115055,0.000416412,0.000974007,0.0154037,0.00461086,-0.00031456,0.000835342,0.00026516,0.00956184,-7.78213e-06,0.00119293,0.0130694,-0.0209692,0.00124935,-0.000143013,-0.00955109
34,5,0,0,0,0,0,0,231.8,254,0,0,0,0,0,0,0,231.8,766,0,-0.000756797,0.000149383,0.000287361,0.0161285,0.00430569,0.000524673,0.000453873,0.000455895,-0.0896203,0.000640716,0.000506287,0.0176471,-0.0210455,0.000982323,0.000391045,-0.00913147
34,6,0,0,0,0,0,0,231.8,254,0,0,0,0,0,0,0,231.8,766,0,-0.00022274,-0.000727997,0.000287361,0.0161285,0.00117764,0.000257645,0.00102608,-0.000268898,0.0149787,-0.000656281,0.000620727,0.0198977,-0.02116,0.000753441,0.000429192,-0.00798706
34,7,0,0,0,0,0,0,231.8,254,0,0,0,0,0,0,0,231.8,766,0,0.000807228,0.000378265,5.84793e-05,0.0163192,-0.00191227,0.00117317,0.000644607,0.000341454,0.0249351,-0.000808869,0.000773315,0.0219958,-0.0211218,0.00025753,0.000391045,-0.00833038
34,8,0,0,0,0,0,0,231.8,254,0,0,0,0,0,0,0,231.8,766,0,0.000349465,0.00095047,0.000478096,0.0147934,0.00113949,0.000524673,0.00133125,0.000455895,-0.0884377,0.0002211,0.00046814,0.0185244,-0.021694,0.000944176,0.00153545,-0.00928406
34,9,0,0,0,0,0,0,231.8,254,0,0,0,0,0,0,0,231.8,766,0,0.000502053,-0.000155793,0.00101215,0.0165481,0.00541195,0.00128761,0.000911636,0.000837364,-0.0423562,0.000259247,0.00145996,0.0118487,-0.0211218,0.00140194,0.00134472,-0.00936035
35,0,0,0,0,0,0,0,231.8,254,0,0,0,0,0,0,0,231.8,766,0,0.000120583,3.49423e-05,0.000630684,0.0155944,0.00735744,0.000677261,0.000911636,-0.000192604,-0.0245415,0.000984039,0.000811462,0.0118869,-0.0213889,0.00117306,0.00126843,-0.00756744
35,1,0,0,0,0,0,0,231.8,254,0,0,0,0,0,0,0,231.8,766,0,0.00015873,7.30893e-05,0.000134773,0.0153656,0.0040768,-9.38424e-06,-0.000347214,0.000455895,0.0394691,3.03648e-05,0.000391846,0.00852993,-0.0228003,0.000448265,0.00058178,-0.00985626
35,2,0,0,0,0,0,0,231.8,254,0,0,0,0,0,0,0,231.8,766,0,0.000959816,0.000988617,0.00101215,0.0159378,0.0029324,0.000257645,0.000568314,0.00106625,-0.0346886,0.000945892,0.000811462,0.0107425,-0.0216559,0.000829735,-0.000219307,-0.00859741
35,3,0,0,0,0,0,0,231.8,254,0,0,0,0,0,0,0,231.8,766,0,0.00145573,0.000683441,0.000592537,0.0165481,0.00586971,0.000753555,-0.000309067,0.000379601,-0.0263345,0.000411835,0.0010022,0.0147097,-0.0213889,0.000791588,0.00199322,-0.00924591
35,4,0,0,0,0,0,0,231.8,254,0,0,0,0,0,0,0,231.8,766,0,-7.01519e-05,0.000492706,-5.59617e-05,0.0153656,0.00304684,-0.000200119,0.000263138,0.00026516,0.0498069,0.000259247,0.000735168,0.0139849,-0.021694,0.000600853,-0.00056263,-0.00875
35,5,0,0,0,0,0,0,231.8,254,0,0,0,0,0,0,0,231.8,766,0,0.000235024,0.000225677,0.000439949,0.0159378,0.00262722,0.00113502,0.00167458,0.000684776,-0.0282418,0.000984039,0.000887756,0.0165408,-0.0216177,0.00124935,0.00115398,-0.00928406
35,6,0,0,0,0,0,0,231.8,254,0,0,0,0,0,0,0,231.8,766,0,0.00107426,0.00144638,0.000897713,0.0170822,0.00209316,0.000791702,0.00106422,0.000150719,-0.0151955,0.000488129,0.000735168,0.016846,-0.0206641,0.000906029,0.00069622,-0.00897888
35,7,0,0,0,0,0,0,231.8,254,0,0,0,0,0,0,0,231.8,766,0,0.000692788,-0.00068985,0.00108845,0.0155563,0.00262722,-4.75312e-05,-0.000995712,-0.000192604,0.0720084,0.000488129,-2.77711e-05,0.0178378,-0.021427,0.000524559,0.000467339,-0.00882629
35,8,0,0,0,0,0,0,231.8,254,0,0,0,0,0,0,0,231.8,766,0,0.000349465,0.00129379,0.000211067,0.0157852,0.00430569,0.000867996,0.000377579,-7.81631e-05,-0.0193154,0.000297394,0.00058258,0.0157016,-0.0211218,0.00113491,-0.000219307,-0.00722412
35,9,0,0,0,0,0,0,231.8,254,0,0,0,0,0,0,0,231.8,766,0,-0.000108299,0.00095047,0.00146992,0.0163192,0.00346645,2.87627e-05,0.00156013,-0.000345192,-0.014547,0.00163254,0.000201111,0.0126117,-0.0218466,0.00124935,0.000314751,-0.00859741
36,0,0,0,0,0,0,0,231.8,254,0,0,0,0,0,0,0,231.8,766,0,0.000883522,0.000797882,0.00116474,0.0157089,0.00205502,0.000181351,0.000224991,0.000455895,0.0835288,3.03648e-05,0.000849609,0.0137561,-0.0211218,0.000410118,0.00153545,-0.00913147
36,1,0,0,0,0,0,0,231.8,254,0,0,0,0,0,0,0,231.8,766,0,0.000463906,-7.94986e-05,-0.000170403,0.0158233,0.0035046,-8.56782e-05,0.00114052,0.000112572,-0.013746,0.000564422,-0.000256653,0.0143283,-0.0223044,0.000410118,8.58689e-05,-0.00890259
36,2,0,0,0,0,0,0,231.8,254,0,0,0,0,0,0,0,231.8,766,0,0.000387612,0.000111236,0.000974007,0.0168151,0.00510677,0.000295792,0.00121681,0.000303307,-0.043081,0.000182953,0.000315552,0.0153201,-0.0208929,0.000410118,-0.000982246,-0.00821594
36,3,0,0,0,0,0,0,231.8,254,0,0,0,0,0,0,0,231.8,766,0,6.14207e-06,-0.000232087,-0.000170403,0.0160522,0.00815853,0.000600967,0.000644607,-0.000688515,-0.00607841,-0.00016037,-0.000104065,0.0163119,-0.0213507,0.00105862,0.00126843,-0.00859741
36,4,0,0,0,0,0,0,231.8,254,0,0,0,0,0,0,0,231.8,766,0,0.000692788,0.00110306,0.000592537,0.0158615,0.00655636,0.000639114,0.000911636,0.00106625,0.0359977,0.000831451,0.00104034,0.0180667,-0.0212363,0.00136379,0.000467339,-0.00882629
36,5,0,0,0,0,0,0,231.8,254,0,0,0,0,0,0,0,231.8,766,0,0.000273171,0.000836029,0.000211067,0.0162811,0.00491604,0.000639114,0.000568314,-1.86916e-06,0.0464881,0.00155624,0.000315552,0.0140994,-0.02013,0.00124935,-0.000486336,-0.0075293
36,6,0,0,0,0,0,0,231.8,254,0,0,0,0,0,0,0,231.8,766,0,0.000997963,-0.000422821,0.00120289,0.0163574,0.00571712,0.000639114,0.000797195,0.000188866,-0.0431573,0.00071701,0.00058258,0.0125735,-0.0208929,0.00105862,0.00145916,-0.00787262
36,7,0,0,0,0,0,0,231.8,254,0,0,0,0,0,0,0,231.8,766,0,0.000921669,-0.000117646,-0.000246697,0.0146026,0.00590786,2.87627e-05,0.000339432,3.62778e-05,0.041796,0.000182953,-2.77711e-05,0.0119632,-0.0206641,-0.000314674,0.000963249,-0.00909332
36,8,0,0,0,0,0,0,231.8,254,0,0,0,0,0,0,0,231.8,766,0,0.000387612,-0.000155793,0.000211067,0.0151748,0.00590786,0.000333939,0.000720901,0.000722923,0.0394691,0.000488129,-0.000218506,0.00959804,-0.0215033,0.000486412,0.0015736,-0.00875
36,9,0,0,0,0,0,0,231.8,254,0,0,0,0,0,0,0,231.8,766,0,0.000387612,0.00133194,0.000478096,0.0162811,0.00468716,0.00113502,0.000224991,0.00118069,-0.037893,0.000640716,-0.000523682,0.0109332,-0.0218085,0.00132565,0.00107769,-0.00802521
37,0,0,0,0,0,0,0,231.8,254,0,0,0,0,0,0,0,231.8,766,0,0.0005402,0.000912323,0.000516243,0.0158996,0.00663265,0.00121132,0.000797195,0.000303307,0.0501502,0.00071701,0.00134552,0.0155108,-0.020397,0.00117306,0.00103954,-0.00829224
37,1,0,0,0,0,0,0,231.8,254,0,0,0,0,0,0,0,231.8,766,0,-0.00022274,0.00106491,9.66262e-05,0.0151367,0.00499233,0.000105057,0.000263138,0.000227013,0.0505317,0.00071701,1.03759e-05,0.0158541,-0.0213507,0.000677147,0.00107769,-0.010047
37,2,0,0,0,0,0,0,231.8,254,0,0,0,0,0,0,0,231.8,766,0,0.000196877,0.000607147,0.000363655,0.0163955,0.00392422,0.000486526,0.00163643,0.000379601,-0.0434243,0.000869598,-0.000485535,0.0147479,-0.0210837,0.00132565,0.000925102,-0.00855927
37,3,0,0,0,0,0,0,231.8,254,0,0,0,0,0,0,0,231.8,766,0,0.000654641,0.000378265,0.00131733,0.0165481,0.00178799,0.00189796,0.000339432,0.000722923,0.0528587,0.000907745,-2.77711e-05,0.0123446,-0.0210837,0.00132565,0.00184063,-0.00825409
37,4,0,0,0,0,0,0,231.8,254,0,0,0,0,0,0,0,231.8,766,0,0.000769082,0.000836029,0.000592537,0.0158233,0.00270351,0.00136391,0.00125496,-0.000154457,0.0583518,0.0015181,4.85228e-05,0.0139087,-0.0220374,0.00144009,0.00069622,-0.0081778
37,5,0,0,0,0,0,0,231.8,254,0,0,0,0,0,0,0,231.8,766,0,0.000311318,-0.000575409,0.000478096,0.0161666,0.00266537,0.000639114,7.24029e-05,-0.000268898,-0.0558221,0.000526275,-0.0002948,0.012192,-0.0213126,6.67954e-05,-0.000867805,-0.00993256
37,6,0,0,0,0,0,0,231.8,254,0,0,0,0,0,0,0,231.8,766,0,8.2436e-05,0.00095047,0.000401802,0.0163574,0.00514492,0.00056282,0.000339432,0.00110439,-0.0147759,-0.00126663,0.000620727,0.0107043,-0.0211981,0.00144009,0.00115398,-0.00936035
37,7,0,0,0,0,0,0,231.8,254,0,0,0,0,0,0,0,231.8,766,0,0.000578347,0.000530853,0.000516243,0.0153656,0.00361904,0.00124947,0.000873489,0.000455895,0.00528938,0.00125107,-0.000599976,0.010361,-0.0210455,0.000867882,0.00069622,-0.007453
37,8,0,0,0,0,0,0,231.8,254,0,0,0,0,0,0,0,231.8,766,0,4.4289e-05,0.000492706,-9.41086e-05,0.0160522,0.0041531,0.000829849,0.00049202,0.000417748,0.118662,0.000640716,0.000925903,0.0137942,-0.021427,0.000867882,0.00119213,-0.00905518
37,9,0,0,0,0,0,0,231.8,254,0,0,0,0,0,0,0,231.8,766,0,0.000654641,0.00110306,5.84793e-05,0.0155944,0.00495419,-4.75312e-05,0.00125496,0.000341454,0.166193,0.000793304,0.000201111,0.0126117,-0.0232581,0.00124935,-6.6719e-05,-0.00840668
38,0,0,0,0,0,0,0,231.8,254,0,0,0,0,0,0,0,231.8,766,0,0.00115055,0.00140823,0.00135548,0.0171203,0.00258907,0.00109688,0.00106422,0.000875511,0.136591,0.000526275,0.000887756,0.0133746,-0.020397,0.000791588,0.00153545,-0.00825409
38,1,0,0,0,0,0,0,231.8,254,0,0,0,0,0,0,0,231.8,766,0,0.000921669,0.000416412,0.000211067,0.0158996,0.00117764,0.000715408,0.000224991,0.000455895,0.0727332,0.000869598,-0.000523682,0.0125354,-0.021694,0.00166897,0.000734367,-0.00871185
38,2,0,0,0,0,0,0,231.8,254,0,0,0,0,0,0,0,231.8,766,0,0.000311318,-0.00030838,0.000249214,0.0160522,-0.00191227,0.000448379,-3.89107e-06,0.00026516,-0.0857293,0.000793304,-0.000218506,0.0149005,-0.0219992,-4.76455e-05,0.000238457,-0.00802521
38,3,0,0,0,0,0,0,231.8,254,0,0,0,0,0,0,0,231.8,766,0,0.000425759,0.000836029,0.00112659,0.0164337,-0.0028278,0.000715408,0.00102608,0.00137142,-0.0568139,-8.40761e-05,0.000544433,0.0151294,-0.02116,0.000906029,0.00058178,-0.00749115
38,4,0,0,0,0,0,0,231.8,254,0,0,0,0,0,0,0,231.8,766,0,0.0011124,0.00125565,0.00154621,0.0166626,-0.000615272,0.00132576,0.00178902,-0.000154457,0.0427879,0.00163254,0.00119293,0.0133364,-0.0209692,0.00262264,0.00119213,-0.00924591
38,5,0,0,0,0,0,0,231.8,254,0,0,0,0,0,0,0,231.8,766,0,0.000387612,0.000759735,5.84793e-05,0.0160904,0.00010952,0.00056282,0.000835342,0.000799217,-0.0597131,3.03648e-05,0.000162964,0.0160067,-0.0207785,0.000753441,0.000543633,-0.00756744
38,6,0,0,0,0,0,0,231.8,254,0,0,0,0,0,0,0,231.8,766,0,0.000692788,-0.000232087,0.000325508,0.0150604,-4.30678e-05,0.000524673,0.000530167,0.000188866,-0.051397,0.00121292,0.000620727,0.01944,-0.0221136,0.000715294,0.00134472,-0.00833038
38,7,0,0,0,0,0,0,231.8,254,0,0,0,0,0,0,0,231.8,766,0,0.000196877,0.000149383,0.000363655,0.0155944,0.00205502,0.00056282,0.000682754,-1.86916e-06,0.0533927,-0.000351105,-0.000752564,0.0193255,-0.0219611,-0.000734291,-0.000104866,-0.00741486
38,8,0,0,0,0,0,0,231.8,254,0,0,0,0,0,0,0,231.8,766,0,0.000273171,3.49423e-05,0.000630684,0.0144882,0.00247463,0.000677261,0.00140755,0.000799217,-0.0460183,0.00155624,-0.000485535,0.0170749,-0.0215033,0.000867882,0.00130657,-0.0081778
38,9,0,0,0,0,0,0,231.8,254,0,0,0,0,0,0,0,231.8,766,0,0.000692788,-0.00019394,0.00055439,0.0165481,-0.00164524,0.000143204,0.00110237,0.000646629,-0.0729882,0.000793304,0.00104034,0.0194781,-0.0218085,0.000371971,0.000925102,-0.00768188
39,0,0,0,0,0,0,0,231.8,254,0,0,0,0,0,0,0,231.8,766,0,0.00103611,0.000721588,0.00101215,0.0164337,-0.00145451,0.000715408,0.000720901,-1.86916e-06,-0.0316369,0.00186142,0.000239258,0.0141757,-0.0221136,0.00155453,0.000276604,-0.00733856
39,1,0,0,0,0,0,0,231.8,254,0,0,0,0,0,0,0,231.8,766,0,0.00015873,0.000836029,0.000134773,0.0163192,0.00236019,0.000677261,-0.000232773,0.0010281,0.00860817,0.000907745,0.000315552,0.00845364,-0.0213889,0.000333824,-2.8572e-05,-0.00699524
39,2,0,0,0,0,0,0,231.8,254,0,0,0,0,0,0,0,231.8,766,0,0.00015873,0.00018753,0.000401802,0.0159378,0.00129208,0.000333939,0.000682754,0.000532188,0.0198615,0.00102219,0.000353699,0.00524929,-0.0219229,0.00124935,-0.000410042,-0.00909332
39,3,0,0,0,0,0,0,231.8,254,0,0,0,0,0,0,0,231.8,766,0,-0.000260887,-0.000537262,0.000706978,0.0152511,-0.00233189,0.000600967,0.00060646,0.000455895,-0.0608956,0.00071701,0.000353699,0.00963619,-0.0217703,0.000944176,0.00107769,-0.00798706
39,4,0,0,0,0,0,0,231.8,254,0,0,0,0,0,0,0,231.8,766,0,0.00221867,0.00110306,0.000211067,0.016777,-0.00126377,0.000753555,0.00140755,0.00129513,0.0271095,0.000335541,0.000773315,0.0106662,-0.0221899,0.00144009,0.00138287,-0.00730042
39,5,0,0,0,0,0,0,231.8,254,0,0,0,0,0,0,0,231.8,766,0,0.000463906,0.000759735,0.00139362,0.0162429,0.00106319,0.00121132,0.00167458,0.000112572,0.0265372,0.000907745,-2.77711e-05,0.0121539,-0.020397,0.0012112,0.000734367,-0.00783447
39,6,0,0,0,0,0,0,231.8,254,0,0,0,0,0,0,0,231.8,766,0,-3.20049e-05,0.000530853,0.000249214,0.0160141,-0.00027195,0.000600967,-0.00027092,0.000150719,-0.0500237,0.000259247,-0.000218506,0.0114291,-0.0221899,0.00025753,0.000619926,-0.0081015
39,7,0,0,0,0,0,0,231.8,254,0,0,0,0,0,0,0,231.8,766,0,0.000730935,3.49423e-05,-0.000246697,0.0153274,0.00270351,-0.000429001,0.000682754,0.00026516,0.0409187,0.00102219,0.000239258,0.0116198,-0.0226859,0.000753441,0.000619926,-0.0075293
39,8,0,0,0,0,0,0,231.8,254,0,0,0,0,0,0,0,231.8,766,0,0.000845375,0.000836029,0.000821419,0.01651,0.00174984,0.00136391,0.000530167,0.000303307,0.0436271,0.00113663,0.000391846,0.0161212,-0.0213126,0.000944176,0.000963249,-0.00764374
39,9,0,0,0,0,0,0,231.8,254,0,0,0,0,0,0,0,231.8,766,0,0.000120583,0.000683441,0.00017292,0.0158233,0.00510677,0.000906143,0.000644607,0.000684776,-0.0486886,0.000182953,0.000429993,0.0138705,-0.0225333,0.00166897,0.00069622,-0.0081015
40,0,0,0,0,0,0,0,231.8,254,0,0,0,0,0,0,0,231.8,766,0,0.00115055,0.000263824,0.000211067,0.0157089,0.00644192,0.000181351,0.000263138,0.000341454,0.046984,0.000755157,-0.000867005,0.0161975,-0.0220374,0.00155453,0.00153545,-0.00962738
40,1,0,0,0,0,0,0,231.8,254,0,0,0,0,0,0,0,231.8,766,0,0.000273171,0.00106491,0.000745125,0.0165481,0.00785336,0.000448379,0.000759048,0.000570335,0.0541557,0.00201401,0.00111664,0.0163882,-0.0219992,0.00136379,0.00161175,-0.00878815
40,2,0,0,0,0,0,0,231.8,254,0,0,0,0,0,0,0,231.8,766,0,8.2436e-05,-0.000117646,0.000287361,0.0155944,0.007243,0.000486526,0.000911636,-0.000307045,-0.0573098,-0.000236664,0.00058258,0.0161975,-0.0220755,2.86484e-05,0.000429192,-0.0102759
40,3,0,0,0,0,0,0,231.8,254,0,0,0,0,0,0,0,231.8,766,0,0.00107426,0.000797882,0.000401802,0.016777,0.0102948,0.00124947,0.000949783,0.000379601,-0.0151574,0.000259247,0.000429993,0.0210803,-0.0205115,0.00117306,9.57493e-06,-0.00886444
40,4,0,0,0,0,0,0,231.8,254,0,0,0,0,0,0,0,231.8,766,0,0.000235024,0.00095047,0.000668831,0.0150222,0.0119732,0.000524673,0.00106422,0.000875511,0.00528938,-7.78213e-06,0.000697021,0.0221484,-0.0208929,0.00163082,0.00191692,-0.00916962
40,5,0,0,0,0,0,0,231.8,254,0,0,0,0,0,0,0,231.8,766,0,8.2436e-05,0.00018753,0.000134773,0.0151748,0.00873074,0.000600967,-0.000537949,0.000379601,0.118243,0.000526275,-0.000218506,0.0146334,-0.0224951,0.00102047,0.000925102,-0.00852112
40,6,0,0,0,0,0,0,231.8,254,0,0,0,0,0,0,0,231.8,766,0,0.000235024,3.49423e-05,-9.41086e-05,0.0167389,0.00800594,-0.000200119,0.00140755,0.00076107,0.166613,0.000793304,0.000887756,0.012192,-0.0233725,0.00113491,0.00107769,-0.00833038
40,7,0,0,0,0,0,0,231.8,254,0,0,0,0,0,0,0,231.8,766,0,0.000387612,0.0012175,0.000325508,0.016777,0.00915035,0.000600967,0.000530167,0.000494041,0.136477,0.00102219,0.00123108,0.0190203,-0.0207404,0.0012112,0.0010014,-0.007453
40,8,0,0,0,0,0,0,231.8,254,0,0,0,0,0,0,0,231.8,766,0,0.00015873,-0.000422821,-0.000399284,0.0156326,0.00800594,-8.56782e-05,0.000453873,3.62778e-05,0.075518,-0.000656281,-0.0002948,0.0175708,-0.0217703,0.00025753,-0.000486336,-0.00798706
40,9,0,0,0,0,0,0,231.8,254,0,0,0,0,0,0,0,231.8,766,0,0.0005402,7.30893e-05,-9.41086e-05,0.0150985,0.00739559,0.00094429,0.000530167,0.000570335,-0.0826012,0.000564422,8.66698e-05,0.0153964,-0.0215414,0.000677147,0.000467339,-0.0099707
41,0,0,0,0,0,0,0,231.8,254,0,0,0,0,0,0,0,231.8,766,0,0.00187534,-0.000117646,0.000897713,0.0164337,0.00625118,0.000715408,0.00205605,0.00110439,-0.0530755,0.000869598,0.000925903,0.0178378,-0.0203207,0.00174526,0.0010014,-0.00669006
41,1,0,0,0,0,0,0,231.8,254,0,0,0,0,0,0,0,231.8,766,0,0.0011124,0.000530853,0.000516243,0.0161285,0.00628933,0.000906143,0.00159828,0.00118069,0.0460304,-0.00016037,-0.000142212,0.0189822,-0.0214651,0.00124935,0.000619926,-0.00913147
41,2,0,0,0,0,0,0,231.8,254,0,0,0,0,0,0,0,231.8,766,0,0.00103611,0.00018753,-5.59617e-05,0.0164337,0.00907406,0.000219498,0.000339432,0.000951805,-0.0557458,0.000488129,0.000925903,0.0153582,-0.0204733,0.000867882,0.0010014,-0.00875
41,3,0,0,0,0,0,0,231.8,254,0,0,0,0,0,0,0,231.8,766,0,0.000273171,0.000569,0.000401802,0.0158996,0.00968441,0.000906143,0.00121681,0.000379601,-0.0472771,0.00212845,-0.0002948,0.00936916,-0.0208548,0.000982323,0.000734367,-0.00813965
41,4,0,0,0,0,0,0,231.8,254,0,0,0,0,0,0,0,231.8,766,0,0.00126499,0.00095047,0.000745125,0.0162429,0.0117062,0.000906143,0.00106422,0.0010281,0.0567115,0.000602569,0.000429993,0.0127261,-0.0215796,0.00105862,0.00191692,-0.00772003
41,5,0,0,0,0,0,0,231.8,254,0,0,0,0,0,0,0,231.8,766,0,0.000273171,0.000378265,0.000211067,0.0162429,0.0110196,0.000257645,0.00121681,0.000417748,-0.0437676,0.000831451,0.000735168,0.0108187,-0.0224188,0.000677147,-2.8572e-05,-0.00882629
41,6,0,0,0,0,0,0,231.8,254,0,0,0,0,0,0,0,231.8,766,0,0.000273171,-7.94986e-05,0.000630684,0.0155182,0.00907406,0.00121132,-8.0185e-05,0.000379601,-0.0691354,0.00117477,0.000239258,0.0130313,-0.0210074,0.000562706,0.00153545,-0.00779633
41,7,0,0,0,0,0,0,231.8,254,0,0,0,0,0,0,0,231.8,766,0,-0.000146446,0.000301971,0.000401802,0.0165863,0.00712856,0.000410232,0.00106422,0.000494041,-0.0289285,0.000297394,0.000811462,0.0136035,-0.0226096,0.00117306,0.00164989,-0.00722412
41,8,0,0,0,0,0,0,231.8,254,0,0,0,0,0,0,0,231.8,766,0,0.0011124,0.000530853,0.000401802,0.0160904,0.00495419,0.000982437,-0.000309067,-7.81631e-05,0.0113166,0.000678863,0.000315552,0.011391,-0.021427,0.000791588,4.77219e-05,-0.00741486
41,9,0,0,0,0,0,0,231.8,254,0,0,0,0,0,0,0,231.8,766,0,6.14207e-06,0.000607147,0.000287361,0.0155944,0.00567898,0.000219498,0.000263138,-4.00161e-05,0.0222648,0.000564422,-0.000104065,0.0151294,-0.0218085,-8.57925e-05,0.00176434,-0.00756744
42,0,0,0,0,0,0,0,231.8,254,0,0,0,0,0,0,0,231.8,766,0,0.000692788,0.000301971,0.000745125,0.0160522,0.0091885,0.000715408,0.00133125,0.00156216,-0.0557458,0.00155624,0.000620727,0.0211184,-0.02116,0.00174526,0.00130657,-0.00783447
42,1,0,0,0,0,0,0,231.8,254,0,0,0,0,0,0,0,231.8,766,0,0.000463906,0.00095047,0.000745125,0.0165481,0.00930294,0.00132576,0.000873489,-1.86916e-06,0.0314582,-0.000579987,8.66698e-05,0.0192111,-0.0203207,-0.000162086,0.00164989,-0.00695709
42,2,0,0,0,0,0,0,231.8,254,0,0,0,0,0,0,0,231.8,766,0,0.000578347,0.00095047,2.03323e-05,0.0154419,0.0079678,0.000105057,0.000682754,0.000684776,0.0243629,0.000564422,0.00130737,0.0153964,-0.0218848,0.000906029,0.00134472,-0.0081015
42,3,0,0,0,0,0,0,231.8,254,0,0,0,0,0,0,0,231.8,766,0,-0.000337181,-0.00030838,-0.000399284,0.0150604,0.00510677,0.000181351,0.000377579,0.00026516,-0.0470864,-0.000198517,4.85228e-05,0.0138705,-0.0208167,0.000295677,-0.00109669,-0.00936035
42,4,0,0,0,0,0,0,231.8,254,0,0,0,0,0,0,0,231.8,766,0,0.000235024,0.000797882,0.00017292,0.0160141,0.00518307,-4.75312e-05,0.000720901,0.000684776,0.0430167,0.000488129,0.000429993,0.0135653,-0.021694,0.000982323,0.00069622,-0.00863556
42,5,0,0,0,0,0,0,231.8,254,0,0,0,0,0,0,0,231.8,766,0,0.000997963,0.000530853,0.000745125,0.0161285,0.00747189,0.00155464,0.00060646,-4.00161e-05,0.0454963,0.0015181,0.000429993,0.010361,-0.0203207,0.00117306,0.000925102,-0.00813965
42,6,0,0,0,0,0,0,231.8,254,0,0,0,0,0,0,0,231.8,766,0,0.000845375,0.000454559,0.000401802,0.0153274,0.00583157,0.000372085,0.000568314,0.000684776,-0.0466668,0.00102219,0.00161255,0.00654629,-0.0224188,0.000562706,0.000505486,-0.00768188
42,7,0,0,0,0,0,0,231.8,254,0,0,0,0,0,0,0,231.8,766,0,0.000730935,7.30893e-05,0.000325508,0.0165863,0.00335201,2.87627e-05,-0.000347214,0.000150719,0.0490058,0.000831451,4.85228e-05,0.00605038,-0.0218848,0.000600853,-0.00124928,-0.0101233
42,8,0,0,0,0,0,0,231.8,254,0,0,0,0,0,0,0,231.8,766,0,4.4289e-05,0.00095047,0.000325508,0.0160141,0.00113949,0.000524673,0.000148697,0.000608482,0.0556052,0.00140366,0.000811462,0.0102465,-0.0216559,0.00105862,0.00145916,-0.00829224
42,9,0,0,0,0,0,0,231.8,254,0,0,0,0,0,0,0,231.8,766,0,0.00141758,0.000645294,0.000859566,0.0162429,0.00434383,0.000410232,0.0013694,0.00076107,-0.054258,0.000640716,-0.0002948,0.0113147,-0.02116,0.000295677,0.00149731,-0.00913147
43,0,0,0,0,0,0,0,231.8,254,0,0,0,0,0,0,0,231.8,766,0,0.000616494,0.00117935,-1.78147e-05,0.0157089,0.00266537,-9.38424e-06,0.000720901,0.000913658,-0.0137078,0.00071701,1.03759e-05,0.0130313,-0.0213507,0.000448265,0.00153545,-0.00924591
43,1,0,0,0,0,0,0,231.8,254,0,0,0,0,0,0,0,231.8,766,0,0.000692788,0.000149383,0.000516243,0.015213,0.00277981,0.000372085,0.000835342,-0.000459633,0.00242836,0.0002211,0.000124817,0.0190966,-0.0203207,0.00155453,0.00020031,-0.00897888
43,2,0,0,0,0,0,0,231.8,254,0,0,0,0,0,0,0,231.8,766,0,-7.01519e-05,-0.000460968,9.66262e-05,0.0153656,0.00136837,0.000257645,0.000301285,0.00076107,0.063082,-0.000351105,0.000773315,0.01738,-0.021694,0.000333824,0.00103954,-0.00821594
43,3,0,0,0,0,0,0,231.8,254,0,0,0,0,0,0,0,231.8,766,0,0.000502053,7.30893e-05,0.000783272,0.0156326,-0.00114933,0.000486526,0.00102608,0.000608482,-0.0150048,0.000602569,0.000277405,0.0190966,-0.0215414,0.000982323,0.000543633,-0.00779633
43,4,0,0,0,0,0,0,231.8,254,0,0,0,0,0,0,0,231.8,766,0,0.00214237,0.000759735,0.00101215,0.0166244,-0.00168339,0.000410232,0.000835342,0.000799217,-0.00851982,0.00155624,0.000887756,0.0216143,-0.02013,0.00117306,0.000810661,-0.00718597
43,5,0,0,0,0,0,0,231.8,254,0,0,0,0,0,0,0,231.8,766,0,0.000997963,0.000492706,0.00017292,0.0161285,-0.00221745,-0.000200119,3.42559e-05,0.000303307,0.0655997,0.000831451,0.000277405,0.0149005,-0.0222281,0.000448265,-0.00132557,-0.00943665
43,6,0,0,0,0,0,0,231.8,254,0,0,0,0,0,0,0,231.8,766,0,6.14207e-06,0.000912323,0.00162251,0.0161285,0.00133022,0.00056282,-4.2038e-05,0.000646629,-0.0131738,0.00155624,0.00104034,0.0143664,-0.0213507,0.000867882,0.000391045,-0.00783447
43,7,0,0,0,0,0,0,231.8,254,0,0,0,0,0,0,0,231.8,766,0,0.000387612,0.00095047,0.000211067,0.0147934,0.000338402,0.00056282,0.000301285,0.000150719,-0.00573509,0.000526275,0.000620727,0.0135653,-0.0218848,-0.000314674,0.000543633,-0.00890259
43,8,0,0,0,0,0,0,231.8,254,0,0,0,0,0,0,0,231.8,766,0,8.2436e-05,-0.00103317,0.000249214,0.0149841,0.00129208,0.000715408,0.000453873,0.00026516,0.0805534,-0.000427399,-0.000104065,0.0126879,-0.0210074,0.000982323,0.000276604,-0.0101233
43,9,0,0,0,0,0,0,231.8,254,0,0,0,0,0,0,0,231.8,766,0,0.000692788,0.00129379,-1.78147e-05,0.0146026,0.00453457,0.00056282,7.24029e-05,0.000379601,-0.0121819,-0.0010759,-0.000218506,0.0123065,-0.0209692,0.000715294,0.000162163,-0.00970367
44,0,0,0,0,0,0,0,231.8,254,0,0,0,0,0,0,0,231.8,766,0,0.000463906,0.0011412,0.000821419,0.01548,0.00247463,0.000600967,0.000873489,3.62778e-05,-0.00893944,0.000640716,0.000849609,0.0142901,-0.022457,0.00124935,0.00107769,-0.00928406
44,1,0,0,0,0,0,0,231.8,254,0,0,0,0,0,0,0,231.8,766,0,0.000463906,0.000340118,0.000478096,0.0161285,0.00266537,-4.75312e-05,0.000797195,-0.000612221,0.0861991,0.000564422,0.000162964,0.0171893,-0.0212363,0.000143089,-0.000143013,-0.00875
44,2,0,0,0,0,0,0,231.8,254,0,0,0,0,0,0,0,231.8,766,0,0.000769082,0.000225677,0.000974007,0.0168914,0.00133022,0.000448379,0.000759048,0.000989952,-0.0110757,0.000526275,0.000620727,0.0160067,-0.0209692,0.00163082,0.00138287,-0.00974182
44,3,0,0,0,0,0,0,231.8,254,0,0,0,0,0,0,0,231.8,766,0,0.000311318,0.000683441,0.00112659,0.0168533,0.000262108,0.000791702,0.000415726,0.000455895,-0.0414788,0.00147995,0.0010022,0.0166934,-0.02116,-0.000162086,0.00069622,-0.00829224
44,4,0,0,0,0,0,0,231.8,254,0,0,0,0,0,0,0,231.8,766,0,0.000196877,0.00110306,-0.000170403,0.0159378,0.00331387,0.00094429,-0.000537949,-0.00011631,-0.00466698,-4.59291e-05,-0.000142212,0.0182574,-0.0208548,6.67954e-05,0.00111584,-0.00813965
44,5,0,0,0,0,0,0,231.8,254,0,0,0,0,0,0,0,231.8,766,0,0.000730935,0.000874176,0.000783272,0.0165863,0.00464901,0.000372085,-3.89107e-06,7.44248e-05,0.0496543,0.000373688,0.000735168,0.0175326,-0.0208167,0.00113491,0.000124016,-0.00951294
44,6,0,0,0,0,0,0,231.8,254,0,0,0,0,0,0,0,231.8,766,0,0.000387612,0.00018753,0.000211067,0.0150985,0.00560268,0.000677261,-8.0185e-05,0.000112572,0.16421,0.0002211,1.03759e-05,0.0169604,-0.0215033,0.000791588,0.00020031,-0.00844482
44,7,0,0,0,0,0,0,231.8,254,0,0,0,0,0,0,0,231.8,766,0,0.00137943,0.000530853,0.00108845,0.0166626,0.00934109,0.000867996,0.000453873,0.000455895,0.147387,0.00102219,0.00149811,0.016846,-0.0205878,0.00136379,0.00145916,-0.0081015
44,8,0,0,0,0,0,0,231.8,254,0,0,0,0,0,0,0,231.8,766,0,0.00149387,0.000492706,0.000974007,0.0164337,0.00873074,0.00140205,0.00140755,0.000951805,0.118433,0.000449982,0.00119293,0.0144427,-0.0213507,0.00178341,0.000391045,-0.00806335
44,9,0,0,0,0,0,0,231.8,254,0,0,0,0,0,0,0,231.8,766,0,0.000463906,0.00144638,5.84793e-05,0.0151748,0.0104855,0.000410232,0.000224991,0.000989952,-0.00699394,0.000793304,1.03759e-05,0.018143,-0.0202826,0.000562706,0.000543633,-0.00901703
45,0,0,0,0,0,0,0,231.8,254,0,0,0,0,0,0,0,231.8,766,0,-0.00022274,0.000378265,-0.000132256,0.0155944,0.00812038,-0.000161972,7.24029e-05,-0.000345192,-0.103925,0.000259247,0.000429993,0.0160067,-0.0222662,0.000982323,0.000925102,-0.00977997
45,1,0,0,0,0,0,0,231.8,254,0,0,0,0,0,0,0,231.8,766,0,0.000616494,-0.000117646,0.000134773,0.0155182,0.00686153,2.87627e-05,0.000224991,-0.000802956,0.0117362,0.00071701,8.66698e-05,0.0123065,-0.0223425,0.00025753,0.000543633,-0.00821594
45,2,0,0,0,0,0,0,231.8,254,0,0,0,0,0,0,0,231.8,766,0,4.4289e-05,0.000340118,0.000974007,0.0165481,0.00548824,0.00128761,0.000377579,0.000570335,0.00975258,0.000831451,0.0022229,0.0140612,-0.0215796,0.000333824,0.00176434,-0.00958923
45,3,0,0,0,0,0,0,231.8,254,0,0,0,0,0,0,0,231.8,766,0,-0.000260887,-0.000270233,0.000706978,0.0155563,0.00358089,0.000448379,0.000797195,-0.000612221,-0.0890862,0.00117477,-0.000104065,0.00944546,-0.0207785,0.000906029,-0.000104866,-0.00852112
45,4,0,0,0,0,0,0,231.8,254,0,0,0,0,0,0,0,231.8,766,0,0.00015873,0.000683441,0.000783272,0.0158233,0.00167355,0.00056282,-0.000118332,0.000112572,0.0160468,0.00109848,-6.59181e-05,0.00784328,-0.0233344,-8.57925e-05,0.000543633,-0.00791077
45,5,0,0,0,0,0,0,231.8,254,0,0,0,0,0,0,0,231.8,766,0,0.000349465,0.00129379,5.84793e-05,0.0147171,-0.000500832,-0.000123825,-0.000728684,-4.00161e-05,0.0250114,0.000831451,-0.000828858,0.00875881,-0.0226477,-9.49856e-06,0.000619926,-0.00768188
45,6,0,0,0,0,0,0,231.8,254,0,0,0,0,0,0,0,231.8,766,0,0.000807228,-4.13517e-05,0.00124104,0.0160904,-0.00126377,0.000677261,0.00110237,0.00129513,-0.0876366,0.000182953,0.000620727,0.013222,-0.0205496,0.00189785,0.00145916,-0.00859741
45,7,0,0,0,0,0,0,231.8,254,0,0,0,0,0,0,0,231.8,766,0,0.000120583,0.00156082,0.000592537,0.0159759,-4.30678e-05,0.000715408,0.000415726,3.62778e-05,-0.0426995,0.000106659,0.000658874,0.0151294,-0.0213507,0.000600853,0.000238457,-0.00840668
45,8,0,0,0,0,0,0,231.8,254,0,0,0,0,0,0,0,231.8,766,0,0.000463906,0.000988617,-0.000475578,0.0148315,0.000376549,0.000448379,0.000453873,0.00121883,-0.0233971,0.000945892,-0.000828858,0.0166552,-0.0213507,0.0012875,0.00069622,-0.0081778
45,9,0,0,0,0,0,0,231.8,254,0,0,0,0,0,0,0,231.8,766,0,-0.00022274,-0.000155793,-5.59617e-05,0.0158233,-0.00183598,0.000219498,0.00148384,-0.000535927,0.0394691,0.000335541,-0.000256653,0.0158541,-0.0219992,0.000715294,0.000352898,-0.00844482
46,0,0,0,0,0,0,0,231.8,254,0,0,0,0,0,0,0,231.8,766,0,0.000730935,0.0011412,0.00093586,0.0159759,0.000758019,0.000982437,0.000530167,0.000303307,-0.0354897,0.00113663,0.000239258,0.0144809,-0.0223807,0.000410118,0.00020031,-0.0068045
46,1,0,0,0,0,0,0,231.8,254,0,0,0,0,0,0,0,231.8,766,0,0.00160831,0.000683441,0.00112659,0.017044,-0.00263706,0.000906143,0.00110237,0.00133327,-0.0261437,0.000564422,0.00138367,0.0146716,-0.0201682,0.0012112,0.000886955,-0.00749115
46,2,0,0,0,0,0,0,231.8,254,0,0,0,0,0,0,0,231.8,766,0,-0.000642356,0.000607147,0.000630684,0.0160522,-0.00175968,0.00102058,0.000682754,0.000608482,0.052172,0.00159439,0.000544433,0.0110476,-0.020397,0.00117306,0.000276604,-0.00916962
46,3,0,0,0,0,0,0,231.8,254,0,0,0,0,0,0,0,231.8,766,0,6.14207e-06,3.49423e-05,-0.000551872,0.015213,0.000948753,-4.75312e-05,-0.000194626,-4.00161e-05,-0.0261056,0.000526275,0.00104034,0.0131839,-0.0226096,-0.000276527,0.000162163,-0.00981812
46,4,0,0,0,0,0,0,231.8,254,0,0,0,0,0,0,0,231.8,766,0,-0.000604209,0.000912323,0.000974007,0.01651,0.000643578,0.000333939,0.000186844,-0.000459633,-0.0180184,0.00186142,0.000811462,0.0212329,-0.0216559,0.00109676,-2.8572e-05,-0.00699524
46,5,0,0,0,0,0,0,231.8,254,0,0,0,0,0,0,0,231.8,766,0,0.000654641,0.000569,0.000745125,0.0162811,0.000948753,0.000524673,0.000797195,0.000379601,0.0725806,0.000564422,0.000277405,0.0215762,-0.0213126,0.00109676,-0.000333748,-0.00836853
46,6,0,0,0,0,0,0,231.8,254,0,0,0,0,0,0,0,231.8,766,0,-0.000566063,0.000225677,0.000897713,0.0164718,-0.00225559,0.000219498,0.00117867,0.000570335,-0.0212609,0.000793304,-0.000523682,0.0190203,-0.0220755,0.000753441,0.000467339,-0.00890259
46,7,0,0,0,0,0,0,231.8,254,0,0,0,0,0,0,0,231.8,766,0,0.000845375,0.000340118,0.000134773,0.0151367,0.00140652,0.00105873,0.000759048,0.000455895,-0.0135934,0.00125107,-0.000714417,0.0188296,-0.0207785,0.00132565,0.00206951,-0.0081778
46,8,0,0,0,0,0,0,231.8,254,0,0,0,0,0,0,0,231.8,766,0,0.00115055,-0.000460968,0.000401802,0.0155563,0.00262722,0.000143204,0.000720901,0.000227013,0.0823844,0.000564422,-0.0002948,0.0139468,-0.0215033,0.000715294,-0.000448189,-0.00955109
46,9,0,0,0,0,0,0,231.8,254,0,0,0,0,0,0,0,231.8,766,0,-3.20049e-05,0.000836029,0.00101215,0.0164337,0.00434383,0.000829849,0.000949783,0.00106625,-0.0143563,0.00106033,0.000887756,0.0115435,-0.0212363,0.000906029,-6.6719e-05,-0.00855927
47,0,0,0,0,0,0,0,231.8,254,0,0,0,0,0,0,0,231.8,766,0,0.000463906,0.000607147,0.00150806,0.0166626,0.00541195,0.000295792,0.00114052,0.000303307,-0.0424706,0.00121292,0.000658874,0.010628,-0.0215796,0.00105862,0.000886955,-0.00802521
47,1,0,0,0,0,0,0,231.8,254,0,0,0,0,0,0,0,231.8,766,0,0.000578347,0.00140823,0.000706978,0.0171585,0.00518307,0.000448379,-0.000156479,3.62778e-05,-0.00588768,0.00147995,0.000773315,0.0149005,-0.0222662,0.00136379,-0.000257454,-0.00905518
47,2,0,0,0,0,0,0,231.8,254,0,0,0,0,0,0,0,231.8,766,0,8.2436e-05,0.000149383,0.000516243,0.0162048,0.00174984,0.000600967,0.00060646,0.000684776,0.0293983,0.00106033,0.000620727,0.0136035,-0.0213889,6.67954e-05,0.000124016,-0.00813965
47,3,0,0,0,0,0,0,231.8,254,0,0,0,0,0,0,0,231.8,766,0,0.0005402,0.00095047,0.000897713,0.0154037,0.00628933,0.000639114,0.000453873,0.000608482,0.0432075,0.00125107,0.00119293,0.0122302,-0.0208167,0.001936,-0.000371895,-0.00897888
47,4,0,0,0,0,0,0,231.8,254,0,0,0,0,0,0,0,231.8,766,0,0.000387612,0.000988617,0.00146992,0.016777,0.00590786,0.000410232,0.000759048,0.0010281,-0.0417077,0.00113663,0.0010022,0.0113528,-0.0208167,0.00124935,0.00134472,-0.00897888
47,5,0,0,0,0,0,0,231.8,254,0,0,0,0,0,0,0,231.8,766,0,-0.000375328,0.000340118,0.000478096,0.0152893,0.00354275,0.000486526,-0.000194626,-4.00161e-05,0.0423301,0.0002211,-0.000332947,0.011391,-0.0223425,0.00025753,-2.8572e-05,-0.00863556
47,6,0,0,0,0,0,0,231.8,254,0,0,0,0,0,0,0,231.8,766,0,0.0005402,7.30893e-05,-0.00032299,0.0158615,0.00239834,0.000600967,0.000186844,7.44248e-05,0.0379432,3.03648e-05,0.000887756,0.0166934,-0.021427,0.00136379,0.000238457,-0.00951294
47,7,0,0,0,0,0,0,231.8,254,0,0,0,0,0,0,0,231.8,766,0,0.0005402,0.00133194,0.000859566,0.0161285,0.0028561,0.000906143,0.00144569,0.00106625,-0.0373589,0.000449982,0.000239258,0.0166552,-0.0209311,0.0012112,0.000772514,-0.00798706
47,8,0,0,0,0,0,0,231.8,254,0,0,0,0,0,0,0,231.8,766,0,0.000921669,0.00018753,2.03323e-05,0.0156707,0.0060223,0.000257645,0.00011055,0.000837364,0.0520576,0.0002211,0.000277405,0.0168078,-0.0211981,0.000486412,0.00142101,-0.00836853
47,9,0,0,0,0,0,0,231.8,254,0,0,0,0,0,0,0,231.8,766,0,0.0011887,0.000378265,0.000249214,0.0166626,0.00590786,0.000295792,-0.000194626,-0.000383339,0.0528205,0.00102219,0.000811462,0.0136416,-0.0218085,0.00147823,0.000238457,-0.00791077
48,0,0,0,0,0,0,0,231.8,254,0,0,0,0,0,0,0,231.8,766,0,0.000273171,0.000836029,0.000478096,0.0156326,0.00445827,0.000219498,-0.000919418,0.000303307,-0.0440728,6.85118e-05,-0.000142212,0.0127642,-0.0223425,-0.000657997,0.00119213,-0.00783447
48,1,0,0,0,0,0,0,231.8,254,0,0,0,0,0,0,0,231.8,766,0,0.00130314,0.00137009,0.0010503,0.0163192,0.00419125,0.00109688,0.00159828,0.000494041,0.054499,0.00132736,0.000620727,0.00994137,-0.0207404,0.000791588,0.00069622,-0.0102759
48,2,0,0,0,0,0,0,231.8,254,0,0,0,0,0,0,0,231.8,766,0,-0.000604209,0.000263824,0.000478096,0.0154037,0.00392422,-4.75312e-05,0.000339432,0.000532188,0.0602973,0.000259247,-0.000180359,0.00765255,-0.0224951,0.000906029,-0.000143013,-0.00882629
48,3,0,0,0,0,0,0,231.8,254,0,0,0,0,0,0,0,231.8,766,0,0.000883522,-3.20468e-06,0.000592537,0.0163192,0.00533566,0.000524673,0.000224991,0.000646629,-0.0558984,0.00159439,0.00134552,0.015549,-0.021694,0.000753441,0.00164989,-0.00783447
48,4,0,0,0,0,0,0,231.8,254,0,0,0,0,0,0,0,231.8,766,0,0.000502053,0.000530853,0.000897713,0.0158615,0.00575527,0.000410232,0.00106422,-0.000802956,-0.0159966,0.00117477,-0.000256653,0.014786,-0.0211981,-0.000276527,-0.000677071,-0.00821594
48,5,0,0,0,0,0,0,231.8,254,0,0,0,0,0,0,0,231.8,766,0,0.000120583,-0.000384674,0.00093586,0.0153274,0.00392422,0.000410232,0.000873489,0.00129513,0.00433571,0.00125107,-0.000180359,0.0168078,-0.0211218,0.00163082,0.000658073,-0.00791077
48,6,0,0,0,0,0,0,231.8,254,0,0,0,0,0,0,0,231.8,766,0,0.000387612,-0.000270233,0.000134773,0.0158996,0.00518307,-8.56782e-05,0.00049202,-0.000192604,0.117709,0.000335541,0.000239258,0.0149768,-0.0218848,0.00124935,9.57493e-06,-0.00871185
48,7,0,0,0,0,0,0,231.8,254,0,0,0,0,0,0,0,231.8,766,0,0.0011124,0.000340118,0.000706978,0.0156326,0.00743374,0.00094429,0.00098793,0.000303307,0.165774,0.000793304,0.000658874,0.0152819,-0.0210074,0.00113491,0.000886955,-0.00886444
48,8,0,0,0,0,0,0,231.8,254,0,0,0,0,0,0,0,231.8,766,0,0.00164646,0.00220932,0.000287361,0.0162811,0.00510677,0.0014402,0.00098793,0.000875511,0.135256,0.00140366,0.000391846,0.010094,-0.0205115,0.00189785,0.000810661,-0.007453
48,9,0,0,0,0,0,0,231.8,254,0,0,0,0,0,0,0,231.8,766,0,-0.000337181,-0.000117646,0.000134773,0.0159378,0.00457272,-0.000429001,0.00011055,0.000379601,0.0723899,0.00071701,-0.000752564,0.00978878,-0.022724,-9.49856e-06,-0.000715218,-0.00943665
49,0,0,0,0,0,0,0,231.8,254,0,0,0,0,0,0,0,231.8,766,0,-0.000794944,-0.000346527,0.000325508,0.0156707,0.0022839,0.000372085,0.000224991,-0.000268898,-0.0859582,0.00132736,0.000544433,0.0117724,-0.0217322,0.000448265,0.00107769,-0.00913147
49,1,0,0,0,0,0,0,231.8,254,0,0,0,0,0,0,0,231.8,766,0,0.000463906,0.000263824,0.000211067,0.0161285,0.00655636,-0.000200119,0.00049202,0.000303307,-0.0563943,0.000106659,0.000506287,0.0106662,-0.0208548,0.000715294,0.000124016,-0.00909332
49,2,0,0,0,0,0,0,231.8,254,0,0,0,0,0,0,0,231.8,766,0,0.000959816,0.000683441,0.00150806,0.0171203,0.00434383,0.00136391,0.00106422,0.00026516,0.0433982,0.000831451,0.0016507,0.0135653,-0.02013,0.00174526,0.00184063,-0.00791077
49,3,0,0,0,0,0,0,231.8,254,0,0,0,0,0,0,0,231.8,766,0,4.4289e-05,0.00125565,0.00055439,0.0150222,0.00495419,0.00132576,0.000720901,0.000570335,-0.0592934,3.03648e-05,0.000658874,0.0134509,-0.0223807,0.000982323,-2.8572e-05,-0.00901703
49,4,0,0,0,0,0,0,231.8,254,0,0,0,0,0,0,0,231.8,766,0,0.000235024,-3.20468e-06,0.000974007,0.0165863,0.00453457,-9.38424e-06,0.000873489,0.000303307,-0.0517785,0.00117477,-0.0002948,0.0116961,-0.0218848,-0.000352821,0.00020031,-0.00852112
49,5,0,0,0,0,0,0,231.8,254,0,0,0,0,0,0,0,231.8,766,0,-0.000108299,3.49423e-05,-0.00104778,0.0162811,0.00728115,0.000791702,0.000301285,0.000188866,0.0539268,-0.000122223,-0.000561829,0.0100177,-0.0219992,0.000486412,0.000162163,-0.00760559
49,6,0,0,0,0,0,0,231.8,254,0,0,0,0,0,0,0,231.8,766,0,0.000692788,0.000301971,0.000630684,0.0167389,0.00861629,0.00094429,0.000873489,0.000379601,-0.0473916,0.000755157,0.000697021,0.0136035,-0.0209692,0.000944176,0.00119213,-0.00966553
49,7,0,0,0,0,0,0,231.8,254,0,0,0,0,0,0,0,231.8,766,0,-0.000375328,7.30893e-05,0.000516243,0.0165863,0.00861629,0.000791702,0.000530167,0.000379601,-0.0736749,-4.59291e-05,0.000162964,0.0175326,-0.0208929,0.000715294,0.00020031,-0.0081015
49,8,0,0,0,0,0,0,231.8,254,0,0,0,0,0,0,0,231.8,766,0,0.000196877,0.000797882,0.000745125,0.0168914,0.00617489,0.000372085,0.000224991,0.000875511,-0.0315224,0.000907745,0.0010022,0.0169604,-0.0212744,-9.49856e-06,0.00164989,-0.0068045
49,9,0,0,0,0,0,0,231.8,254,0,0,0,0,0,0,0,231.8,766,0,-7.01519e-05,-7.94986e-05,0.000783272,0.0162811,0.00319942,0.00128761,0.000339432,-0.00087925,0.00811226,0.000678863,0.0010022,0.0150149,-0.0209692,0.000677147,8.58689e-05,-0.00958923
50,0,0,0,0,0,0,0,231.8,254,0,0,0,0,0,0,0,231.8,766,0,0.000120583,0.000301971,-0.000666313,0.0156326,0.0041531,0.000219498,0.000453873,0.000455895,0.020243,0.0002211,-0.000332947,0.0144809,-0.0224951,-0.000200233,0.000734367,-0.00829224
50,1,0,0,0,0,0,0,231.8,254,0,0,0,0,0,0,0,231.8,766,0,0.000769082,0.000988617,0.00135548,0.0173874,0.00682339,0.00056282,0.000720901,0.000608482,-0.0603997,0.00117477,0.00107849,0.0148623,-0.0205496,0.00144009,0.000619926,-0.00794891
50,2,0,0,0,0,0,0,231.8,254,0,0,0,0,0,0,0,231.8,766,0,0.000769082,0.000645294,0.00143177,0.0163192,0.00678524,0.00140205,0.000568314,0.000379601,0.0270713,0.000907745,-0.000752564,0.0157016,-0.0208167,0.0012112,0.000505486,-0.00730042
50,3,0,0,0,0,0,0,231.8,254,0,0,0,0,0,0,0,231.8,766,0,0.000502053,-0.000995026,0.0010503,0.0162048,0.00674709,0.000829849,0.00049202,0.000455895,0.0255073,0.00106033,0.000697021,0.0164264,-0.0215033,0.000524559,0.000810661,-0.0081015
50,4,0,0,0,0,0,0,231.8,254,0,0,0,0,0,0,0,231.8,766,0,0.000921669,0.000225677,-0.000857048,0.0147934,0.0060223,2.87627e-05,0.000453873,0.000532188,-0.0493752,-0.00016037,-0.000104065,0.0144427,-0.0215414,0.000562706,-2.8572e-05,-0.00829224
50,5,0,0,0,0,0,0,231.8,254,0,0,0,0,0,0,0,231.8,766,0,0.0005402,0.001866,0.000897713,0.0158996,0.00319942,0.00094429,0.00121681,0.00133327,0.0416816,0.000526275,0.000162964,0.0144809,-0.021694,0.000677147,0.00180248,-0.00741486
50,6,0,0,0,0,0,0,231.8,254,0,0,0,0,0,0,0,231.8,766,0,0.000387612,0.000988617,0.000783272,0.0160522,0.00613674,0.00094429,0.0013694,0.000341454,0.0440467,0.00106033,0.00207031,0.016083,-0.0200156,0.00189785,0.00176434,-0.00886444
50,7,0,0,0,0,0,0,231.8,254,0,0,0,0,0,0,0,231.8,766,0,0.0011124,0.000340118,0.000630684,0.0162048,0.00148281,0.000219498,0.00178902,0.000303307,-0.0490319,0.000182953,0.00142181,0.0206607,-0.0215796,0.000867882,0.00172619,-0.00852112
50,8,0,0,0,0,0,0,231.8,254,0,0,0,0,0,0,0,231.8,766,0,0.000845375,0.00137009,0.000592537,0.0158996,-0.000577125,0.0014402,0.00102608,0.000875511,0.0484336,0.000564422,4.85228e-05,0.022034,-0.02013,0.000600853,-0.000219307,-0.00760559
50,9,0,0,0,0,0,0,231.8,254,0,0,0,0,0,0,0,231.8,766,0,0.000769082,0.000149383,0.000516243,0.0168151,-0.00343815,0.000372085,0.00117867,0.000570335,0.0551475,-0.00016037,0.000391846,0.0142901,-0.0218466,0.00113491,0.00119213,-0.00859741
51,0,0,0,0,0,0,0,231.8,254,0,0,0,0,0,0,0,231.8,766,0,-0.00106197,-0.000232087,0.000668831,0.0159378,-0.0021793,0.000219498,-8.0185e-05,0.000379601,-0.0566613,-0.000312958,0.000506287,0.0139468,-0.0217703,0.000944176,0.000276604,-0.00916962
51,1,0,0,0,0,0,0,231.8,254,0,0,0,0,0,0,0,231.8,766,0,0.000349465,0.000645294,0.000706978,0.0166626,0.000262108,0.00128761,0.000568314,0.000646629,-0.0148522,0.000678863,0.00107849,0.0176471,-0.021427,0.00117306,0.00149731,-0.00863556
51,2,0,0,0,0,0,0,231.8,254,0,0,0,0,0,0,0,231.8,766,0,0.000349465,-0.000460968,0.000668831,0.0149841,-0.00332371,0.000486526,0.00106422,0.000227013,0.00452644,0.000144806,-6.59181e-05,0.011925,-0.0208929,0.000753441,0.000314751,-0.00962738
51,3,0,0,0,0,0,0,231.8,254,0,0,0,0,0,0,0,231.8,766,0,0.00015873,0.00144638,0.000211067,0.0149841,-0.00175968,6.69097e-05,0.00125496,0.000837364,0.118128,-0.000694428,0.000620727,0.0157397,-0.0217703,0.000219383,0.00134472,-0.00813965
51,4,0,0,0,0,0,0,231.8,254,0,0,0,0,0,0,0,231.8,766,0,0.000502053,-0.000537262,0.000706978,0.0161285,0.00274166,0.000257645,0.00060646,-1.86916e-06,0.166689,-0.000122223,1.03759e-05,0.0108187,-0.0215414,0.000906029,9.57493e-06,-0.00852112
51,5,0,0,0,0,0,0,231.8,254,0,0,0,0,0,0,0,231.8,766,0,0.00115055,0.000607147,0.000974007,0.0171585,0.00224575,0.00185982,0.00159828,0.00110439,0.137621,-8.40761e-05,0.000239258,0.0124972,-0.0202444,0.00147823,0.00103954,-0.00825409
51,6,0,0,0,0,0,0,231.8,254,0,0,0,0,0,0,0,231.8,766,0,0.000883522,0.00102676,0.000516243,0.0149459,0.000529137,0.000295792,0.000949783,0.000494041,0.0754798,-0.000808869,0.00046814,0.0164264,-0.0233344,0.000562706,0.000162163,-0.00882629
