Devices
1000
,,North - Force,,,North - Moment,,,North - CoP,,,South - Force,,,South - Moment,,,South - CoP,,,EMG - Voltage,,,,,,,,,,,,,,,,
Frame,Sub Frame,Fx,Fy,Fz,Mx,My,Mz,Cx,Cy,Cz,Fx,Fy,Fz,Mx,My,Mz,Cx,Cy,Cz,1,2,3,TA,5,Sol,7,8,VL,RF,BF,GlutMed,GlutMax,14,MedGast,16
,,N,N,N,N.mm,N.mm,N.mm,mm,mm,mm,N,N,N,N.mm,N.mm,N.mm,mm,mm,mm,V,V,V,V,V,V,V,V,V,V,V,V,V,V,V,V
1,0,0,0,0,0,0,0,231.8,254,0,0,0,0,0,0,0,231.8,766,0,0.000387612,0.00117935,0.00112659,0.0165481,0.00129208,0.000906143,0.00148384,-1.86916e-06,-0.053457,0.000869598,0.00119293,0.0157016,-0.0201682,0.00163082,0.00069622,-0.00875
1,1,0,0,0,0,0,0,231.8,254,0,0,0,0,0,0,0,231.8,766,0,0.000616494,0.000759735,0.000211067,0.0158615,0.00159725,0.000791702,0.00110237,0.000112572,0.00422127,0.000259247,-0.000599976,0.0135272,-0.0210074,0.000753441,0.00115398,-0.00859741
1,2,0,0,0,0,0,0,231.8,254,0,0,0,0,0,0,0,231.8,766,0,0.000769082,0.000492706,0.0010503,0.0167389,0.00361904,0.000639114,0.00171272,3.62778e-05,0.117899,0.00201401,0.00184143,0.015549,-0.0212744,0.00113491,0.00134472,-0.00821594
1,3,0,0,0,0,0,0,231.8,254,0,0,0,0,0,0,0,231.8,766,0,-7.01519e-05,0.00110306,0.00166065,0.0162048,0.00354275,0.00132576,0.00144569,0.000455895,-0.0540673,0.0014418,0.000849609,0.0204699,-0.0206259,0.00105862,0.000886955,-0.0068808
1,4,0,0,0,0,0,0,231.8,254,0,0,0,0,0,0,0,231.8,766,0,0.000616494,-0.000270233,0.000859566,0.0166626,0.00392422,0.000715408,0.00106422,0.000494041,-0.0577676,-0.000427399,0.000925903,0.0206225,-0.0211218,0.000906029,0.00130657,-0.00798706
1,5,0,0,0,0,0,0,231.8,254,0,0,0,0,0,0,0,231.8,766,0,0.000120583,0.000416412,0.000439949,0.0156707,0.00529751,2.87627e-05,0.00144569,-0.000154457,-0.0134026,0.000869598,0.00107849,0.01738,-0.0207785,0.00132565,0.000505486,-0.00836853
1,6,0,0,0,0,0,0,231.8,254,0,0,0,0,0,0,0,231.8,766,0,0.000654641,-0.000232087,0.000859566,0.0155944,0.00506863,-0.000123825,0.000263138,-0.000230751,0.0664008,0.00071701,-6.59181e-05,0.0186389,-0.0210837,-0.000810585,0.000925102,-0.00928406
1,7,0,0,0,0,0,0,231.8,254,0,0,0,0,0,0,0,231.8,766,0,0.000196877,0.000378265,0.000821419,0.01651,0.00716671,0.000753555,0.00152199,-0.000650368,0.0328315,0.000564422,0.0010022,0.022568,-0.02013,0.000867882,0.0010014,-0.00970367
1,8,0,0,0,0,0,0,231.8,254,0,0,0,0,0,0,0,231.8,766,0,0.000235024,0.00095047,0.00162251,0.0168533,0.00823482,0.00151649,0.00117867,0.000913658,-0.067991,-8.40761e-05,0.00107849,0.0191348,-0.0197104,0.00163082,0.00126843,-0.00840668
1,9,0,0,0,0,0,0,231.8,254,0,0,0,0,0,0,0,231.8,766,0,0.000959816,0.00137009,0.000363655,0.01651,0.00895962,0.000867996,0.00152199,0.00121883,0.0820411,0.00071701,0.000162964,0.0149386,-0.0209692,0.00102047,0.0015736,-0.00821594
2,0,0,0,0,0,0,0,231.8,254,0,0,0,0,0,0,0,231.8,766,0,0.000349465,-0.00030838,0.000897713,0.0162811,0.00800594,0.000600967,-4.2038e-05,0.000227013,0.0297416,0.000488129,0.000277405,0.0167315,-0.0218848,6.67954e-05,-0.000295601,-0.00775818
2,1,0,0,0,0,0,0,231.8,254,0,0,0,0,0,0,0,231.8,766,0,0.000387612,-0.00068985,-1.78147e-05,0.0152511,0.0054501,0.000295792,0.00060646,-0.000307045,-0.0673425,0.000831451,0.000697021,0.0160067,-0.0216559,0.000944176,0.000772514,-0.00951294
2,2,0,0,0,0,0,0,231.8,254,0,0,0,0,0,0,0,231.8,766,0,0.00015873,-3.20468e-06,0.000401802,0.01548,0.00506863,0.000677261,0.00159828,0.00118069,0.0905097,0.000106659,-0.000485535,0.0138705,-0.021694,0.000562706,0.000352898,-0.00852112
2,3,0,0,0,0,0,0,231.8,254,0,0,0,0,0,0,0,231.8,766,0,0.000463906,-7.94986e-05,0.000706978,0.01548,0.0060223,0.000791702,0.000186844,-0.000421486,0.0403465,0.00102219,-0.00124847,0.0147097,-0.0210074,-0.000276527,0.000505486,-0.00882629
2,4,0,0,0,0,0,0,231.8,254,0,0,0,0,0,0,0,231.8,766,0,0.000235024,0.00018753,0.000630684,0.0161285,0.00556454,0.00113502,0.00125496,0.00076107,-0.0681054,0.000259247,0.00107849,0.013222,-0.0216559,0.0012875,0.000734367,-0.00943665
2,5,0,0,0,0,0,0,231.8,254,0,0,0,0,0,0,0,231.8,766,0,0.000311318,0.000645294,0.00131733,0.0167389,0.00659451,0.00102058,0.00114052,-0.000154457,0.0922645,0.00163254,0.000811462,0.0181811,-0.0207404,0.00102047,0.00184063,-0.00691895
2,6,0,0,0,0,0,0,231.8,254,0,0,0,0,0,0,0,231.8,766,0,0.000235024,0.000530853,0.00055439,0.0156707,0.00499233,0.000524673,-0.000156479,0.000608482,0.0490058,-0.000503693,-6.59181e-05,0.0177233,-0.0207785,0.000486412,0.000925102,-0.00859741
2,7,0,0,0,0,0,0,231.8,254,0,0,0,0,0,0,0,231.8,766,0,-0.000108299,0.000797882,0.000859566,0.0163192,0.00468716,0.000257645,0.00102608,0.00026516,-0.0916039,0.00128921,0.000887756,0.0158541,-0.0206641,0.00117306,-0.000944099,-0.00806335
2,8,0,0,0,0,0,0,231.8,254,0,0,0,0,0,0,0,231.8,766,0,0.000349465,0.00018753,0.000363655,0.0159378,0.00762447,0.000639114,0.000568314,0.000684776,-0.0223672,0.00106033,-2.77711e-05,0.0186007,-0.0205496,0.00105862,0.00164989,-0.00802521
2,9,0,0,0,0,0,0,231.8,254,0,0,0,0,0,0,0,231.8,766,0,0.00153202,0.000912323,0.000363655,0.0163192,0.00617489,0.000486526,0.000720901,0.000722923,0.00860817,0.00071701,0.000658874,0.0161975,-0.022991,0.000639,-6.6719e-05,-0.00791077
3,0,0,0,0,0,0,0,231.8,254,0,0,0,0,0,0,0,231.8,766,0,0.000616494,0.000378265,0.00146992,0.0159759,0.0054501,0.00128761,-3.89107e-06,0.000303307,0.0935996,0.00186142,0.000773315,0.0138324,-0.0199774,0.000677147,0.000124016,-0.00726227
3,1,0,0,0,0,0,0,231.8,254,0,0,0,0,0,0,0,231.8,766,0,0.00015873,0.000645294,0.00150806,0.017044,0.00812038,0.000791702,0.000530167,0.00076107,-0.0562417,0.00128921,0.00142181,0.011925,-0.0202826,0.00136379,0.00111584,-0.00821594
3,2,0,0,0,0,0,0,231.8,254,0,0,0,0,0,0,0,231.8,766,0,0.00107426,0.000912323,9.66262e-05,0.0159759,0.00514492,0.000715408,0.00102608,0.000532188,0.00403053,0.00128921,0.000849609,0.00719479,-0.0226477,0.000753441,0.000619926,-0.00901703
3,3,0,0,0,0,0,0,231.8,254,0,0,0,0,0,0,0,231.8,766,0,-0.000375328,7.30893e-05,0.000363655,0.0158996,0.00178799,2.87627e-05,0.000453873,0.000150719,0.0956977,-0.000122223,-0.00067627,0.0113528,-0.0209311,-4.76455e-05,0.000848808,-0.00733856
3,4,0,0,0,0,0,0,231.8,254,0,0,0,0,0,0,0,231.8,766,0,-0.00071865,-0.000384674,0.00055439,0.0158996,0.000376549,0.000372085,0.000835342,0.000379601,-0.0532662,0.00071701,0.000124817,0.012955,-0.0221899,0.000715294,0.00176434,-0.0102759
3,5,0,0,0,0,0,0,231.8,254,0,0,0,0,0,0,0,231.8,766,0,-3.20049e-05,0.000111236,0.00055439,0.015747,0.00274166,0.000791702,0.00133125,0.000989952,0.00425941,0.000488129,-0.000371094,0.0123446,-0.0209692,0.00109676,0.000772514,-0.00787262
3,6,0,0,0,0,0,0,231.8,254,0,0,0,0,0,0,0,231.8,766,0,0.000845375,0.00152267,0.000974007,0.0158996,0.00449642,0.00151649,0.00144569,0.000989952,0.112292,0.000640716,0.00134552,0.0136798,-0.0203207,0.00212673,0.00138287,-0.00775818
3,7,0,0,0,0,0,0,231.8,254,0,0,0,0,0,0,0,231.8,766,0,0.000463906,0.000111236,0.000249214,0.0161285,0.00102505,0.000448379,0.000720901,0.00125698,-0.0532281,0.00102219,0.00130737,0.0105899,-0.0206259,-0.000276527,-0.000410042,-0.00813965
3,8,0,0,0,0,0,0,231.8,254,0,0,0,0,0,0,0,231.8,766,0,0.000196877,0.000492706,0.00166065,0.0166244,0.00236019,0.00109688,0.00190346,0.000455895,0.00399239,0.00224289,0.000391846,0.0120013,-0.0207785,0.00174526,-0.000448189,-0.00825409
3,9,0,0,0,0,0,0,231.8,254,0,0,0,0,0,0,0,231.8,766,0,0.00137943,0.0012175,0.00173695,0.0167007,0.00403866,0.00109688,0.00182716,0.00106625,0.116869,0.000411835,0.000811462,0.0116198,-0.0222662,0.00212673,0.00187878,-0.00886444
4,0,0,0,0,0,0,0,231.8,254,0,0,0,0,0,0,0,231.8,766,0,0.000769082,0.000721588,0.000668831,0.0163574,0.00396236,0.00136391,0.00121681,0.000150719,-0.0528848,-0.000503693,0.00107849,0.0157016,-0.0203589,0.00151638,0.00176434,-0.00806335
4,1,0,0,0,0,0,0,231.8,254,0,0,0,0,0,0,0,231.8,766,0,-3.20049e-05,0.000225677,0.000745125,0.0160141,0.00335201,0.00109688,0.00121681,0.000341454,-0.0572335,0.000259247,1.03759e-05,0.0128405,-0.0207022,0.000867882,0.000658073,-0.00730042
4,2,0,0,0,0,0,0,231.8,254,0,0,0,0,0,0,0,231.8,766,0,-0.000527916,0.000225677,0.00127918,0.0163192,0.00476345,0.000410232,0.000797195,-4.00161e-05,-0.0147378,0.00109848,-0.0002948,0.0117343,-0.0217322,0.000944176,0.00130657,-0.00886444
4,3,0,0,0,0,0,0,231.8,254,0,0,0,0,0,0,0,231.8,766,0,0.000616494,0.000874176,-0.00020855,0.0170059,0.00518307,-9.38424e-06,0.00102608,0.000684776,0.064875,0.000907745,0.000162964,0.0130313,-0.0216177,0.000715294,0.00130657,-0.00760559
4,4,0,0,0,0,0,0,231.8,254,0,0,0,0,0,0,0,231.8,766,0,0.00122685,0.000225677,0.000325508,0.0161285,0.00514492,0.00105873,0.000644607,0.000722923,0.0325645,0.00109848,0.000315552,0.0130313,-0.0222662,0.000982323,0.00149731,-0.0093222
4,5,0,0,0,0,0,0,231.8,254,0,0,0,0,0,0,0,231.8,766,0,0.000502053,0.00152267,0.000706978,0.0168533,0.00476345,0.00136391,0.000263138,0.000837364,-0.0673043,0.00147995,0.00104034,0.014786,-0.02013,0.00208858,0.00142101,-0.00840668
4,6,0,0,0,0,0,0,231.8,254,0,0,0,0,0,0,0,231.8,766,0,-0.000566063,-0.00068985,0.000592537,0.0160522,0.00201687,0.000372085,-4.2038e-05,-0.000307045,0.0820411,0.0002211,4.85228e-05,0.0140994,-0.0220374,-4.76455e-05,0.000848808,-0.00806335
4,7,0,0,0,0,0,0,231.8,254,0,0,0,0,0,0,0,231.8,766,0,0.000769082,-0.000232087,-0.000780754,0.01548,0.00392422,0.000677261,0.000720901,0.000646629,0.0285972,-0.000656281,-0.000409241,0.0168078,-0.020397,0.000791588,0.00134472,-0.00890259
4,8,0,0,0,0,0,0,231.8,254,0,0,0,0,0,0,0,231.8,766,0,0.0005402,0.000416412,-0.000399284,0.0152893,0.00426754,-0.000505295,0.000224991,0.00106625,-0.0650536,0.000297394,-0.000828858,0.0166552,-0.0221518,0.000829735,0.000505486,-0.00749115
4,9,0,0,0,0,0,0,231.8,254,0,0,0,0,0,0,0,231.8,766,0,0.00015873,0.000836029,0.000859566,0.0159759,0.00705227,0.00105873,0.000453873,0.00156216,0.0903953,0.000831451,4.85228e-05,0.0126498,-0.0215414,0.00132565,0.00107769,-0.00852112
5,0,0,0,0,0,0,0,231.8,254,0,0,0,0,0,0,0,231.8,766,0,0.00141758,0.000721588,0.000249214,0.0169677,0.00640377,0.000715408,0.000720901,0.00129513,0.0404609,0.00163254,0.00138367,0.0122683,-0.0211218,0.00178341,0.000505486,-0.00905518
5,1,0,0,0,0,0,0,231.8,254,0,0,0,0,0,0,0,231.8,766,0,0.000997963,0.000301971,0.000897713,0.0163192,0.00411495,0.000867996,0.000339432,0.000722923,-0.0669228,0.000373688,0.00115479,0.0162356,-0.0212363,-9.49856e-06,0.00161175,-0.0068808
5,2,0,0,0,0,0,0,231.8,254,0,0,0,0,0,0,0,231.8,766,0,0.0005402,0.000721588,-0.000170403,0.0154419,0.0028561,6.69097e-05,0.000415726,0.00026516,0.0916541,-0.000198517,0.000162964,0.0135653,-0.0220374,0.00109676,-0.000371895,-0.00867371
5,3,0,0,0,0,0,0,231.8,254,0,0,0,0,0,0,0,231.8,766,0,0.000807228,0.000530853,0.00120289,0.0162048,0.00342831,0.000791702,0.00098793,0.00076107,0.0487006,0.000984039,0.000887756,0.0123446,-0.0206641,0.00117306,0.000772514,-0.00756744
5,4,0,0,0,0,0,0,231.8,254,0,0,0,0,0,0,0,231.8,766,0,0.000235024,7.30893e-05,0.000249214,0.0169677,0.00308498,0.000829849,0.000720901,0.00106625,-0.0912988,-0.000808869,0.000658874,0.0143664,-0.0215796,0.000448265,0.00168804,-0.00768188
5,5,0,0,0,0,0,0,231.8,254,0,0,0,0,0,0,0,231.8,766,0,0.00134129,0.000645294,-0.000284843,0.015747,0.00442013,2.87627e-05,0.00125496,0.000646629,-0.0226723,0.000449982,0.000239258,0.0124972,-0.0215414,0.000677147,0.00153545,-0.00829224
5,6,0,0,0,0,0,0,231.8,254,0,0,0,0,0,0,0,231.8,766,0,0.0005402,0.00106491,0.000821419,0.0167389,0.00136837,0.00102058,0.000873489,0.000455895,0.00895149,0.00155624,0.000620727,0.0131457,-0.0207785,0.00132565,-0.000295601,-0.00833038
5,7,0,0,0,0,0,0,231.8,254,0,0,0,0,0,0,0,231.8,766,0,-3.20049e-05,0.000874176,0.000706978,0.0166244,0.00308498,0.000143204,0.000453873,0.00213436,0.0925315,0.000907745,1.03759e-05,0.0133364,-0.0221136,0.00136379,0.00168804,-0.00806335
5,8,0,0,0,0,0,0,231.8,254,0,0,0,0,0,0,0,231.8,766,0,0.000311318,7.30893e-05,0.000401802,0.0155182,0.000834313,0.000410232,0.00049202,0.000341454,-0.0556313,0.000564422,0.000239258,0.0137179,-0.0213507,2.86484e-05,0.000429192,-0.00871185
5,9,0,0,0,0,0,0,231.8,254,0,0,0,0,0,0,0,231.8,766,0,0.000730935,0.00018753,0.00055439,0.0157089,-0.00393406,0.000486526,0.000835342,-0.000383339,0.00456459,6.85118e-05,-0.000599976,0.0140231,-0.0215414,-0.000543556,0.000238457,-0.00768188
6,0,0,0,0,0,0,0,231.8,254,0,0,0,0,0,0,0,231.8,766,0,0.00115055,0.0011412,0.000706978,0.01651,-0.00168339,0.00094429,0.00152199,0.00121883,0.094744,0.00189957,0.000315552,0.0165026,-0.021427,0.00124935,0.00107769,-0.010314
6,1,0,0,0,0,0,0,231.8,254,0,0,0,0,0,0,0,231.8,766,0,0.000463906,0.00106491,0.00093586,0.01651,0.00102505,0.00128761,0.00148384,0.000608482,-0.0518929,0.000755157,0.000811462,0.017113,-0.0200537,0.00155453,0.00176434,-0.0075293
6,2,0,0,0,0,0,0,231.8,254,0,0,0,0,0,0,0,231.8,766,0,0.000845375,0.00110306,0.00055439,0.0158996,0.00174984,0.000677261,0.000568314,0.00114254,0.00494606,3.03648e-05,0.000162964,0.0120395,-0.0217322,0.000715294,0.0015736,-0.0068045
6,3,0,0,0,0,0,0,231.8,254,0,0,0,0,0,0,0,231.8,766,0,0.00115055,-0.000346527,0.000211067,0.0158996,0.00205502,0.00056282,0.00110237,-0.000383339,0.111414,0.000907745,0.000429993,0.012192,-0.0210837,0.000867882,0.00115398,-0.00825409
6,4,0,0,0,0,0,0,231.8,254,0,0,0,0,0,0,0,231.8,766,0,0.000311318,0.0011412,0.0010503,0.0162429,0.00640377,0.000181351,0.000148697,0.000722923,-0.0523888,0.000488129,0.000620727,0.0169223,-0.0219992,0.000829735,0.00229839,-0.00875
6,5,0,0,0,0,0,0,231.8,254,0,0,0,0,0,0,0,231.8,766,0,0.000730935,0.000683441,0.000630684,0.0166626,0.00529751,0.000600967,0.000339432,0.000913658,0.00399239,0.00147995,0.000658874,0.016083,-0.0217322,0.000944176,0.00168804,-0.00722412
6,6,0,0,0,0,0,0,231.8,254,0,0,0,0,0,0,0,231.8,766,0,-0.000299034,0.000874176,0.000897713,0.0168151,0.00449642,0.000829849,0.00144569,7.44248e-05,0.117594,0.000411835,0.00145996,0.0146334,-0.020397,0.000867882,0.000543633,-0.00813965
6,7,0,0,0,0,0,0,231.8,254,0,0,0,0,0,0,0,231.8,766,0,0.000120583,-0.000232087,0.000592537,0.0164337,0.00651821,0.000105057,0.000568314,0.000913658,-0.0525414,-0.000351105,0.000201111,0.0129931,-0.0212363,0.000295677,0.000467339,-0.00916962
6,8,0,0,0,0,0,0,231.8,254,0,0,0,0,0,0,0,231.8,766,0,0.000997963,0.000416412,0.000401802,0.0160904,0.00586971,0.00056282,0.000224991,0.000799217,-0.056585,0.000373688,0.000201111,0.0146716,-0.0212744,0.000600853,0.000772514,-0.00836853
6,9,0,0,0,0,0,0,231.8,254,0,0,0,0,0,0,0,231.8,766,0,-0.000527916,-0.00030838,0.000592537,0.0157852,0.00735744,0.00105873,0.00098793,0.000989952,-0.012983,0.00102219,0.000620727,0.0192874,-0.021427,-8.57925e-05,0.00161175,-0.00798706
7,0,0,0,0,0,0,0,231.8,254,0,0,0,0,0,0,0,231.8,766,0,0.000997963,0.000912323,-0.000513725,0.0159378,0.00876888,0.00109688,0.00163643,0.000684776,0.0657142,-8.40761e-05,0.000315552,0.0168078,-0.0206259,0.00105862,0.00168804,-0.00875
7,1,0,0,0,0,0,0,231.8,254,0,0,0,0,0,0,0,231.8,766,0,0.000311318,0.00163712,0.00135548,0.0160141,0.00926479,0.000791702,0.00106422,0.000799217,0.0336707,0.000984039,0.00111664,0.0141375,-0.0200919,0.00147823,0.00107769,-0.00878815
7,2,0,0,0,0,0,0,231.8,254,0,0,0,0,0,0,0,231.8,766,0,8.2436e-05,7.30893e-05,0.000668831,0.0162811,0.00728115,0.000257645,-0.000843124,-4.00161e-05,-0.0665032,-4.59291e-05,0.000811462,0.0145953,-0.0215796,-0.000123939,0.00058178,-0.00844482
7,3,0,0,0,0,0,0,231.8,254,0,0,0,0,0,0,0,231.8,766,0,-7.01519e-05,-0.000155793,0.000249214,0.0158615,0.00720486,0.000524673,0.000873489,0.000722923,0.08227,0.00071701,0.000391846,0.0104373,-0.0213126,0.000753441,0.000543633,-0.00779633
7,4,0,0,0,0,0,0,231.8,254,0,0,0,0,0,0,0,231.8,766,0,0.000997963,0.00102676,0.000745125,0.0162048,0.00659451,0.00094429,0.000644607,0.000379601,0.0247825,0.000526275,0.000620727,0.0111239,-0.0209311,0.00136379,0.00130657,-0.00855927
7,5,0,0,0,0,0,0,231.8,254,0,0,0,0,0,0,0,231.8,766,0,0.0005402,0.000988617,0.00124104,0.0171966,0.00564083,0.000829849,0.00190346,0.000341454,-0.0626122,0.00117477,0.00161255,0.0163119,-0.0206641,0.00182156,0.00267986,-0.00813965
7,6,0,0,0,0,0,0,231.8,254,0,0,0,0,0,0,0,231.8,766,0,0.00015873,0.000263824,0.000745125,0.0165481,0.00396236,0.00102058,0.000873489,0.000188866,0.0911582,0.000945892,-0.0002948,0.0157016,-0.0217322,0.000410118,0.000314751,-0.00875
7,7,0,0,0,0,0,0,231.8,254,0,0,0,0,0,0,0,231.8,766,0,-0.000260887,0.000530853,-0.00020855,0.0161285,0.00205502,-0.00031456,0.000148697,0.000875511,0.0398505,-0.000465546,-0.000599976,0.0152819,-0.0221518,-0.00061985,0.00103954,-0.00657562
7,8,0,0,0,0,0,0,231.8,254,0,0,0,0,0,0,0,231.8,766,0,0.000807228,0.000683441,0.000363655,0.0160904,0.00373348,0.000486526,0.00159828,-0.000154457,-0.0666558,0.0002211,0.000239258,0.0131076,-0.0217322,0.000639,0.000352898,-0.0099707
7,9,0,0,0,0,0,0,231.8,254,0,0,0,0,0,0,0,231.8,766,0,-0.000146446,-0.000537262,0.0010503,0.0157089,0.0022076,0.000486526,0.000453873,0.00026516,0.0915778,-0.000465546,1.03759e-05,0.0130694,-0.0209692,-0.00023838,0.000925102,-0.0075293
8,0,0,0,0,0,0,0,231.8,254,0,0,0,0,0,0,0,231.8,766,0,0.000654641,0.000607147,0.000211067,0.01651,0.000796166,0.000600967,0.000377579,0.000303307,0.0491584,6.85118e-05,-6.59181e-05,0.00963619,-0.0213507,0.000906029,0.00134472,-0.00798706
8,1,0,0,0,0,0,0,231.8,254,0,0,0,0,0,0,0,231.8,766,0,0.000921669,0.0012175,0.00150806,0.0162811,0.00140652,0.00128761,0.00182716,0.000608482,-0.089811,0.00117477,0.00107849,0.00914028,-0.0213507,0.000639,0.000314751,-0.00703339
8,2,0,0,0,0,0,0,231.8,254,0,0,0,0,0,0,0,231.8,766,0,0.000196877,0.000988617,0.000401802,0.0152511,0.0047253,0.000600967,-3.89107e-06,-0.000764809,-0.0203072,0.000182953,-0.000218506,0.0167697,-0.0200156,0.000410118,-2.8572e-05,-0.00840668
8,3,0,0,0,0,0,0,231.8,254,0,0,0,0,0,0,0,231.8,766,0,8.2436e-05,0.000111236,0.000783272,0.0169677,0.00380978,0.000867996,0.00114052,0.000532188,0.00849373,0.000793304,0.000544433,0.017113,-0.0207785,0.000562706,0.000848808,-0.00951294
8,4,0,0,0,0,0,0,231.8,254,0,0,0,0,0,0,0,231.8,766,0,0.000578347,0.000683441,-5.59617e-05,0.0168914,0.00239834,0.0014402,0.00190346,0.000303307,0.0928367,0.000678863,0.00107849,0.0189059,-0.0198248,0.000791588,0.00130657,-0.00783447
8,5,0,0,0,0,0,0,231.8,254,0,0,0,0,0,0,0,231.8,766,0,0.00115055,0.00125565,-0.000246697,0.0160522,0.0028561,0.00102058,0.000263138,3.62778e-05,-0.0549065,0.00102219,1.03759e-05,0.0199359,-0.0207785,0.00166897,0.000810661,-0.00726227
8,6,0,0,0,0,0,0,231.8,254,0,0,0,0,0,0,0,231.8,766,0,0.000769082,0.000454559,0.000211067,0.0160141,0.00644192,0.000372085,-8.0185e-05,-0.000268898,0.00586159,0.0002211,-6.59181e-05,0.0152819,-0.021427,-0.000123939,-0.000219307,-0.00821594
8,7,0,0,0,0,0,0,231.8,254,0,0,0,0,0,0,0,231.8,766,0,-0.000108299,0.00125565,0.00108845,0.0156707,0.00560268,0.000143204,0.000873489,0.00118069,0.094744,0.00102219,0.000735168,0.01841,-0.0213507,0.00109676,0.00241283,-0.00802521
8,8,0,0,0,0,0,0,231.8,254,0,0,0,0,0,0,0,231.8,766,0,0.00107426,0.00167526,0.00017292,0.0164718,0.00365719,0.00163094,0.000568314,0.000608482,-0.051397,0.000945892,0.000735168,0.018143,-0.0213507,0.000867882,0.000963249,-0.0093222
8,9,0,0,0,0,0,0,231.8,254,0,0,0,0,0,0,0,231.8,766,0,-0.000413475,0.000492706,0.000630684,0.0157089,0.00300869,0.000906143,0.00125496,7.44248e-05,0.00445015,0.000297394,-0.000485535,0.0166171,-0.0224188,0.000448265,-0.000219307,-0.00798706
9,0,0,0,0,0,0,0,231.8,254,0,0,0,0,0,0,0,231.8,766,0,0.000387612,0.000340118,0.000821419,0.0158615,0.00113949,0.000791702,0.00148384,-0.000307045,0.110956,0.000755157,-0.000371094,0.0123446,-0.0199011,0.00147823,0.000314751,-0.00977997
9,1,0,0,0,0,0,0,231.8,254,0,0,0,0,0,0,0,231.8,766,0,0.000349465,-4.13517e-05,0.000783272,0.0157089,0.0016354,-0.000200119,0.00060646,0.000341454,-0.0519311,0.000564422,0.000773315,0.0140994,-0.02116,6.67954e-05,0.000963249,-0.00691895
9,2,0,0,0,0,0,0,231.8,254,0,0,0,0,0,0,0,231.8,766,0,-0.000337181,-0.000460968,5.84793e-05,0.0151748,0.00541195,0.00102058,0.000644607,-0.00110813,0.00490791,-4.59291e-05,0.00111664,0.0221484,-0.0216177,0.000562706,0.00142101,-0.00909332
9,3,0,0,0,0,0,0,231.8,254,0,0,0,0,0,0,0,231.8,766,0,8.2436e-05,0.000645294,0.000211067,0.0155563,0.000452843,0.000867996,0.00106422,0.000303307,0.115992,0.000411835,0.00153625,0.0207751,-0.0213889,-0.000543556,4.77219e-05,-0.00928406
9,4,0,0,0,0,0,0,231.8,254,0,0,0,0,0,0,0,231.8,766,0,0.000616494,0.000683441,0.00131733,0.0164718,-4.92088e-06,0.000524673,0.00098793,0.000455895,-0.0507104,0.000945892,0.00104034,0.0191729,-0.02013,0.00117306,0.000505486,-0.00764374
9,5,0,0,0,0,0,0,231.8,254,0,0,0,0,0,0,0,231.8,766,0,-0.000184593,0.000645294,0.000859566,0.0164337,0.000796166,0.000753555,0.000949783,-1.86916e-06,-0.056318,0.00071701,0.00096405,0.0175708,-0.0212744,0.000867882,0.00134472,-0.00794891
9,6,0,0,0,0,0,0,231.8,254,0,0,0,0,0,0,0,231.8,766,0,0.000387612,0.000301971,0.000287361,0.0156707,0.00270351,0.00094429,0.000797195,-1.86916e-06,-0.0119912,0.000411835,-0.000828858,0.0140231,-0.0206641,0.000639,0.000276604,-0.00798706
9,7,0,0,0,0,0,0,231.8,254,0,0,0,0,0,0,0,231.8,766,0,0.000654641,0.000797882,0.00055439,0.0165863,0.00102505,0.000219498,7.24029e-05,-0.000268898,0.065142,0.000869598,0.00058258,0.00917843,-0.0209692,0.000867882,0.000505486,-0.00875
9,8,0,0,0,0,0,0,231.8,254,0,0,0,0,0,0,0,231.8,766,0,8.2436e-05,-0.00030838,-9.41086e-05,0.0156707,0.00384792,2.87627e-05,0.000682754,-0.00114628,0.0320304,-0.000274811,-0.000104065,0.00898769,-0.0205878,0.000829735,0.00168804,-0.00981812
9,9,0,0,0,0,0,0,231.8,254,0,0,0,0,0,0,0,231.8,766,0,0.000273171,-0.00103317,5.84793e-05,0.015213,0.00300869,0.000219498,0.000759048,0.000188866,-0.0656258,-0.000312958,0.000773315,0.0148242,-0.0215414,0.000600853,0.00153545,-0.00813965
10,0,0,0,0,0,0,0,231.8,254,0,0,0,0,0,0,0,231.8,766,0,0.000311318,0.00102676,-0.000132256,0.0157852,0.00483974,0.000982437,0.000759048,0.000570335,0.0823844,0.000907745,0.000277405,0.0133364,-0.0203589,0.0012875,0.000848808,-0.00787262
10,1,0,0,0,0,0,0,231.8,254,0,0,0,0,0,0,0,231.8,766,0,0.00168461,0.00144638,0.00127918,0.0167389,0.00552639,0.00128761,0.000224991,0.000837364,0.0302375,0.00155624,0.000544433,0.0140231,-0.019863,0.00124935,0.000848808,-0.00772003
10,2,0,0,0,0,0,0,231.8,254,0,0,0,0,0,0,0,231.8,766,0,0.000883522,0.00117935,0.0010503,0.0158615,0.00380978,0.00117317,0.000759048,0.000989952,-0.0639474,0.00109848,0.00123108,0.0151675,-0.0202826,0.000524559,0.00123028,-0.00840668
10,3,0,0,0,0,0,0,231.8,254,0,0,0,0,0,0,0,231.8,766,0,0.000502053,0.000912323,0.000783272,0.0163955,0.00304684,0.000639114,0.0013694,0.000150719,0.0898612,0.0014418,0.00153625,0.0116961,-0.0205115,0.00144009,0.000925102,-0.00974182
10,4,0,0,0,0,0,0,231.8,254,0,0,0,0,0,0,0,231.8,766,0,0.00015873,0.000645294,0.00108845,0.0162429,0.000719872,0.00140205,0.000644607,0.000303307,0.0400031,0.000984039,0.000811462,0.0124209,-0.0205878,0.00124935,0.000619926,-0.0093222
10,5,0,0,0,0,0,0,231.8,254,0,0,0,0,0,0,0,231.8,766,0,-0.000451622,0.000683441,0.000478096,0.0154037,0.00495419,0.00102058,-3.89107e-06,0.000341454,-0.0655114,0.000945892,0.000773315,0.0144809,-0.0207785,0.000562706,0.000124016,-0.00867371
10,6,0,0,0,0,0,0,231.8,254,0,0,0,0,0,0,0,231.8,766,0,-0.000794944,-0.000804291,-0.000399284,0.0157089,0.0054501,0.000257645,0.000568314,-0.000307045,0.0905479,0.000564422,-0.000332947,0.0125354,-0.0214651,0.000715294,0.00107769,-0.00825409
10,7,0,0,0,0,0,0,231.8,254,0,0,0,0,0,0,0,231.8,766,0,0.00015873,0.000797882,0.000134773,0.0155944,0.00579342,0.000524673,-3.89107e-06,-0.000383339,0.0484336,0.000488129,0.00046814,0.0103991,-0.0211981,0.000562706,0.00161175,-0.00897888
10,8,0,0,0,0,0,0,231.8,254,0,0,0,0,0,0,0,231.8,766,0,0.000769082,7.30893e-05,0.000211067,0.0155182,0.0047253,0.000372085,0.000759048,-0.000154457,-0.0896203,0.00132736,-2.77711e-05,0.011925,-0.02116,0.00105862,0.000124016,-0.00833038
10,9,0,0,0,0,0,0,231.8,254,0,0,0,0,0,0,0,231.8,766,0,0.000807228,0.000797882,0.00158436,0.017044,0.00571712,0.00113502,0.0013694,0.00121883,-0.0206506,0.000907745,0.00058258,0.0131457,-0.0215033,0.000143089,0.00115398,-0.00768188
11,0,0,0,0,0,0,0,231.8,254,0,0,0,0,0,0,0,231.8,766,0,0.000730935,0.000416412,0.000706978,0.0156707,0.00773891,0.000181351,0.000835342,-0.00011631,0.00971443,0.000945892,0.000315552,0.0140994,-0.0211981,0.000677147,0.0010014,-0.00894073
11,1,0,0,0,0,0,0,231.8,254,0,0,0,0,0,0,0,231.8,766,0,0.000997963,-0.000804291,0.000325508,0.0158996,0.00865444,0.00109688,7.24029e-05,-0.00011631,0.0923408,0.000373688,0.000925903,0.0174945,-0.0217322,0.0012875,0.000276604,-0.00920776
11,2,0,0,0,0,0,0,231.8,254,0,0,0,0,0,0,0,231.8,766,0,0.00015873,0.000378265,0.000706978,0.0162048,0.00937923,0.00147835,0.000949783,0.000188866,-0.0547158,0.00128921,0.00096405,0.0133364,-0.0209311,0.0012875,0.00153545,-0.00844482
11,3,0,0,0,0,0,0,231.8,254,0,0,0,0,0,0,0,231.8,766,0,0.000769082,0.00095047,0.00131733,0.0165481,0.00693783,0.000600967,0.000949783,0.000570335,0.00460274,0.00113663,0.00058258,0.0152438,-0.021427,6.67954e-05,0.00142101,-0.00852112
11,4,0,0,0,0,0,0,231.8,254,0,0,0,0,0,0,0,231.8,766,0,-7.01519e-05,0.00095047,0.000478096,0.0158615,0.00770077,0.000715408,0.00011055,-0.000154457,0.0945533,0.000373688,-0.000599976,0.0155108,-0.0215414,0.000639,0.000352898,-0.00878815
11,5,0,0,0,0,0,0,231.8,254,0,0,0,0,0,0,0,231.8,766,0,0.000463906,-0.000232087,0.000401802,0.0154419,0.00651821,-4.75312e-05,0.000568314,-0.000192604,-0.0517022,3.03648e-05,-0.00101959,0.0147097,-0.0213507,0.000219383,0.000543633,-0.00730042
11,6,0,0,0,0,0,0,231.8,254,0,0,0,0,0,0,0,231.8,766,0,0.00130314,0.000378265,0.000363655,0.0157852,0.00514492,0.00117317,0.000301285,0.000227013,0.00525124,-4.59291e-05,-0.000561829,0.0164645,-0.0206259,0.000524559,0.000162163,-0.0081778
11,7,0,0,0,0,0,0,231.8,254,0,0,0,0,0,0,0,231.8,766,0,-0.000146446,0.000492706,0.000859566,0.0164718,0.00400051,-0.000467148,0.00156013,0.000303307,0.111414,0.00106033,0.000658874,0.0144809,-0.021427,0.000562706,0.000658073,-0.00875
11,8,0,0,0,0,0,0,231.8,254,0,0,0,0,0,0,0,231.8,766,0,-0.000489769,0.000645294,0.00017292,0.0158233,0.00499233,0.000639114,0.000148697,-4.00161e-05,-0.0515496,0.000793304,0.000315552,0.0120395,-0.0217322,0.000486412,0.00119213,-0.00966553
11,9,0,0,0,0,0,0,231.8,254,0,0,0,0,0,0,0,231.8,766,0,0.000502053,-0.000232087,0.0010503,0.0169296,0.00422939,0.000906143,0.00140755,0.00026516,0.00544197,0.000297394,0.00107849,0.0133364,-0.0204733,0.00174526,0.000467339,-0.00821594
12,0,0,0,0,0,0,0,231.8,254,0,0,0,0,0,0,0,231.8,766,0,0.000997963,0.0011412,0.00093586,0.0169677,0.00487789,0.00121132,0.000682754,0.000494041,0.115496,0.00159439,0.000735168,0.0167315,-0.0204352,0.000715294,0.00058178,-0.00882629
12,1,0,0,0,0,0,0,231.8,254,0,0,0,0,0,0,0,231.8,766,0,-7.01519e-05,-0.000575409,0.000745125,0.0161285,0.00453457,-0.000123825,0.00106422,0.000494041,-0.0519692,-0.000122223,-0.00067627,0.0136798,-0.0226096,0.000410118,0.000162163,-0.00951294
12,2,0,0,0,0,0,0,231.8,254,0,0,0,0,0,0,0,231.8,766,0,0.000921669,0.000874176,0.000974007,0.0162811,0.00579342,0.00117317,0.000568314,0.000837364,-0.0550973,0.00125107,0.000391846,0.015816,-0.0209692,0.00102047,0.00142101,-0.00714783
12,3,0,0,0,0,0,0,231.8,254,0,0,0,0,0,0,0,231.8,766,0,0.00103611,0.00190414,0.000287361,0.0158233,0.00266537,0.000867996,0.000263138,0.00076107,-0.0117623,0.000564422,0.000506287,0.0151675,-0.0212744,0.000143089,0.0028706,-0.00791077
12,4,0,0,0,0,0,0,231.8,254,0,0,0,0,0,0,0,231.8,766,0,0.00145573,0.00140823,0.0010503,0.0162429,0.000262108,0.00113502,0.000682754,-7.81631e-05,0.0655997,0.000678863,0.000391846,0.0168078,-0.0219611,0.000944176,0.000543633,-0.00855927
12,5,0,0,0,0,0,0,231.8,254,0,0,0,0,0,0,0,231.8,766,0,0.000463906,0.000530853,0.00112659,0.017044,0.00270351,0.00170723,-3.89107e-06,0.000913658,0.0328315,6.85118e-05,0.000925903,0.011925,-0.0199393,0.000906029,0.00161175,-0.00974182
12,6,0,0,0,0,0,0,231.8,254,0,0,0,0,0,0,0,231.8,766,0,-3.20049e-05,0.000836029,0.000783272,0.0173874,0.0009869,0.00113502,0.000415726,3.62778e-05,-0.0652825,0.00113663,0.0010022,0.0112384,-0.0203589,0.00189785,0.000619926,-0.00768188
12,7,0,0,0,0,0,0,231.8,254,0,0,0,0,0,0,0,231.8,766,0,0.0011887,0.000797882,0.000859566,0.0166244,-4.92088e-06,0.00136391,0.000568314,-0.00011631,0.0802863,0.00186142,0.0010022,0.0139087,-0.0204352,0.00147823,0.000619926,-0.00691895
12,8,0,0,0,0,0,0,231.8,254,0,0,0,0,0,0,0,231.8,766,0,0.000845375,0.000607147,0.000249214,0.0168151,0.00232204,0.00132576,0.00121681,0.000722923,0.0297797,0.000907745,0.00111664,0.0190585,-0.0206259,0.000677147,0.00229839,-0.00852112
12,9,0,0,0,0,0,0,231.8,254,0,0,0,0,0,0,0,231.8,766,0,0.0005402,0.000645294,0.000783272,0.0152893,0.000567284,0.000753555,0.000148697,0.000379601,-0.0634133,0.000945892,-0.000638123,0.0209658,-0.0209692,0.00170712,0.000543633,-0.00829224
13,0,0,0,0,0,0,0,231.8,254,0,0,0,0,0,0,0,231.8,766,0,-0.000299034,0.000149383,0.00055439,0.0153274,0.00289425,-4.75312e-05,-0.0011483,0.000417748,0.0897849,0.000297394,1.03759e-05,0.014252,-0.0230292,-0.000390968,0.000276604,-0.00958923
13,1,0,0,0,0,0,0,231.8,254,0,0,0,0,0,0,0,231.8,766,0,0.000997963,0.000645294,-0.000170403,0.0162811,0.00491604,-0.000276413,0.00152199,0.000494041,0.0398505,0.000640716,0.00134552,0.0156634,-0.0220374,0.000791588,0.00119213,-0.00955109
13,2,0,0,0,0,0,0,231.8,254,0,0,0,0,0,0,0,231.8,766,0,0.000425759,0.000912323,0.00188953,0.0160141,0.00445827,0.000410232,-0.000232773,-0.000345192,-0.0647866,0.00128921,0.00046814,0.0172274,-0.0213507,0.000677147,0.00020031,-0.00890259
13,3,0,0,0,0,0,0,231.8,254,0,0,0,0,0,0,0,231.8,766,0,6.14207e-06,0.000492706,5.84793e-05,0.0154419,0.000834313,0.000372085,0.000148697,3.62778e-05,0.0913108,0.000373688,4.85228e-05,0.0169986,-0.0213889,0.00140194,0.000810661,-0.00791077
13,4,0,0,0,0,0,0,231.8,254,0,0,0,0,0,0,0,231.8,766,0,0.0005402,-7.94986e-05,0.000249214,0.0164337,0.00247463,0.000982437,0.000911636,0.000646629,0.0479758,0.00136551,0.000925903,0.0143283,-0.0219611,0.00205044,0.00115398,-0.00871185
13,5,0,0,0,0,0,0,231.8,254,0,0,0,0,0,0,0,231.8,766,0,0.00115055,0.0017897,0.000134773,0.0162811,0.00422939,0.00109688,0.000263138,0.000417748,-0.0883233,0.000640716,0.00138367,0.0128787,-0.0215796,0.000906029,0.000619926,-0.00844482
13,6,0,0,0,0,0,0,231.8,254,0,0,0,0,0,0,0,231.8,766,0,0.0005402,-4.13517e-05,-0.000132256,0.0160522,0.00312313,0.000333939,0.000301285,0.000417748,-0.0217568,-0.000236664,0.000353699,0.0139849,-0.0213889,0.000906029,0.000429192,-0.00855927
13,7,0,0,0,0,0,0,231.8,254,0,0,0,0,0,0,0,231.8,766,0,0.000769082,0.000797882,0.000439949,0.0157852,0.00377163,0.00094429,0.000911636,0.000608482,0.00971443,0.00109848,-2.77711e-05,0.0128024,-0.0209692,0.00155453,0.00107769,-0.00741486
13,8,0,0,0,0,0,0,231.8,254,0,0,0,0,0,0,0,231.8,766,0,0.000654641,0.00110306,0.000249214,0.0166244,0.00297054,0.000410232,0.000720901,0.000532188,0.0925315,0.00106033,0.000620727,0.0125354,-0.0215414,0.000715294,0.00260357,-0.00756744
13,9,0,0,0,0,0,0,231.8,254,0,0,0,0,0,0,0,231.8,766,0,0.000578347,0.00175156,0.00124104,0.0163955,0.000223961,0.0020887,0.000568314,0.00026516,-0.053724,0.00205215,0.000315552,0.011658,-0.0198248,0.00117306,0.00138287,-0.00791077
14,0,0,0,0,0,0,0,231.8,254,0,0,0,0,0,0,0,231.8,766,0,0.000120583,0.000683441,0.000668831,0.0170059,3.32261e-05,0.00151649,0.00144569,0.00026516,0.00837929,0.000526275,-2.77711e-05,0.00982693,-0.0200156,0.00109676,-6.6719e-05,-0.00798706
14,1,0,0,0,0,0,0,231.8,254,0,0,0,0,0,0,0,231.8,766,0,0.000273171,0.000149383,0.000592537,0.0165863,-0.00191227,0.000753555,0.000759048,0.00076107,0.0925697,0.000182953,0.000239258,0.0125354,-0.0214651,0.00159267,0.00107769,-0.00913147
14,2,0,0,0,0,0,0,231.8,254,0,0,0,0,0,0,0,231.8,766,0,0.000311318,0.000149383,-0.000742607,0.0150222,-0.000195656,0.000639114,-0.000232773,-0.000421486,-0.0545632,-0.000274811,0.000201111,0.014252,-0.0215414,0.000791588,-0.00113483,-0.00768188
14,3,0,0,0,0,0,0,231.8,254,0,0,0,0,0,0,0,231.8,766,0,0.000997963,0.000569,-0.000628166,0.0155944,0.00205502,0.000677261,0.000911636,-0.000307045,0.0076545,0.000182953,-0.000142212,0.0126117,-0.0221518,0.000524559,0.000619926,-0.00875
14,4,0,0,0,0,0,0,231.8,254,0,0,0,0,0,0,0,231.8,766,0,0.00168461,0.000874176,0.000745125,0.0168151,-0.00126377,0.000982437,0.000949783,0.00156216,0.110384,0.00125107,0.0010022,0.0153582,-0.02013,0.00178341,0.00142101,-0.00836853
14,5,0,0,0,0,0,0,231.8,254,0,0,0,0,0,0,0,231.8,766,0,0.000387612,-0.000155793,-0.00020855,0.015213,-0.00286594,-4.75312e-05,0.000415726,0.000646629,-0.0499856,0.00106033,1.03759e-05,0.0175708,-0.0212744,0.000448265,0.000848808,-0.00737671
14,6,0,0,0,0,0,0,231.8,254,0,0,0,0,0,0,0,231.8,766,0,0.0011124,0.000378265,0.000249214,0.0168533,-0.000157509,2.87627e-05,0.000224991,0.000570335,0.00589973,0.000945892,0.00096405,0.0200885,-0.0208167,-0.000162086,0.00134472,-0.00760559
14,7,0,0,0,0,0,0,231.8,254,0,0,0,0,0,0,0,231.8,766,0,-0.000794944,0.000301971,0.000478096,0.016777,0.000910606,0.000524673,0.000530167,0.00026516,0.115725,-0.00016037,-2.77711e-05,0.0230639,-0.0208929,0.00147823,-0.000257454,-0.0081778
14,8,0,0,0,0,0,0,231.8,254,0,0,0,0,0,0,0,231.8,766,0,0.000654641,0.000759735,-1.78147e-05,0.0157089,0.00346645,0.000448379,-0.000232773,-0.000383339,-0.05113,0.000106659,0.000277405,0.0216525,-0.0216559,0.000143089,0.000314751,-0.00848297
14,9,0,0,0,0,0,0,231.8,254,0,0,0,0,0,0,0,231.8,766,0,0.000616494,0.00140823,-0.000246697,0.0161285,0.0053738,0.000105057,0.000186844,0.000341454,-0.0547921,3.03648e-05,0.000544433,0.0192111,-0.0216559,0.00105862,0.00123028,-0.00855927
15,0,0,0,0,0,0,0,231.8,254,0,0,0,0,0,0,0,231.8,766,0,-0.000527916,0.000263824,0.000706978,0.01548,0.00663265,0.000715408,0.000759048,0.000608482,-0.012983,0.000297394,0.00046814,0.0191729,-0.0208929,0.00132565,0.00172619,-0.00859741
15,1,0,0,0,0,0,0,231.8,254,0,0,0,0,0,0,0,231.8,766,0,0.00130314,0.00110306,5.84793e-05,0.0175018,0.00277981,0.000906143,0.000797195,0.000150719,0.0647605,0.000945892,0.000506287,0.0183718,-0.0203207,0.00147823,0.00130657,-0.00707153
15,2,0,0,0,0,0,0,231.8,254,0,0,0,0,0,0,0,231.8,766,0,0.00145573,0.000111236,0.000249214,0.0163192,0.00297054,0.00056282,0.00129311,0.000417748,0.0322211,0.00109848,0.000353699,0.0169986,-0.0216559,0.000867882,0.000848808,-0.00878815
15,3,0,0,0,0,0,0,231.8,254,0,0,0,0,0,0,0,231.8,766,0,-0.000375328,0.000645294,-5.59617e-05,0.0155563,-4.30678e-05,0.000295792,-0.000537949,-0.000230751,-0.064634,0.000640716,-0.000523682,0.0156253,-0.0206259,-0.000352821,0.000162163,-0.00833038
15,4,0,0,0,0,0,0,231.8,254,0,0,0,0,0,0,0,231.8,766,0,0.000425759,7.30893e-05,0.00055439,0.0164337,0.00323757,0.000257645,0.000301285,-0.000383339,0.08124,-0.000427399,0.00058258,0.0164264,-0.0219611,0.000715294,0.000810661,-0.00897888
15,5,0,0,0,0,0,0,231.8,254,0,0,0,0,0,0,0,231.8,766,0,0.000997963,0.000645294,0.00055439,0.0156707,0.00747189,0.000600967,0.00114052,0.00026516,0.0296272,0.000526275,0.00115479,0.0166171,-0.0197485,0.0012875,0.000734367,-0.00916962
15,6,0,0,0,0,0,0,231.8,254,0,0,0,0,0,0,0,231.8,766,0,0.000845375,0.00171341,0.000897713,0.0163192,0.00754818,0.000829849,0.00121681,0.00152401,-0.0623833,0.000831451,0.00107849,0.0186007,-0.0207785,0.000677147,0.00206951,-0.0099707
15,7,0,0,0,0,0,0,231.8,254,0,0,0,0,0,0,0,231.8,766,0,0.000654641,-0.000117646,0.00143177,0.0170059,0.00632748,0.00102058,0.00110237,0.00110439,0.0882972,0.00109848,0.000239258,0.0157016,-0.0209311,0.00140194,0.00145916,-0.00958923
15,8,0,0,0,0,0,0,231.8,254,0,0,0,0,0,0,0,231.8,766,0,0.000730935,0.00095047,0.000478096,0.0159378,0.00609859,0.00140205,0.000453873,-7.81631e-05,0.0406516,0.000106659,0.000887756,0.00917843,-0.0202444,0.00132565,0.00184063,-0.00855927
15,9,0,0,0,0,0,0,231.8,254,0,0,0,0,0,0,0,231.8,766,0,0.000349465,0.000607147,0.000439949,0.0155563,0.00346645,0.00109688,0.0013694,0.00026516,-0.065664,0.000755157,0.00046814,0.00788143,-0.0211218,0.000524559,0.000810661,-0.00783447
16,0,0,0,0,0,0,0,231.8,254,0,0,0,0,0,0,0,231.8,766,0,0.000387612,0.000836029,0.00017292,0.0166244,0.00533566,0.00117317,0.00121681,0.000951805,0.0914634,0.000907745,0.000162964,0.0070422,-0.0195197,0.001936,0.000467339,-0.00768188
16,1,0,0,0,0,0,0,231.8,254,0,0,0,0,0,0,0,231.8,766,0,-7.01519e-05,0.000492706,0.000630684,0.0162429,0.00728115,0.000486526,-4.2038e-05,-4.00161e-05,0.0479758,-0.000847016,0.00138367,0.00685146,-0.0218848,0.000524559,0.000772514,-0.0093985
16,2,0,0,0,0,0,0,231.8,254,0,0,0,0,0,0,0,231.8,766,0,0.000311318,0.00018753,-0.000284843,0.0161666,0.00785336,0.000715408,0.000148697,-0.000154457,-0.0877129,0.000526275,1.03759e-05,0.00936916,-0.0209311,0.000410118,0.00115398,-0.00833038
16,3,0,0,0,0,0,0,231.8,254,0,0,0,0,0,0,0,231.8,766,0,0.000425759,0.0011412,0.00101215,0.0148315,0.007243,0.000715408,0.00106422,-0.000230751,-0.0203835,-0.000122223,0.000887756,0.0128787,-0.0204352,0.00102047,0.00069622,-0.0075293
16,4,0,0,0,0,0,0,231.8,254,0,0,0,0,0,0,0,231.8,766,0,0.00218052,0.000301971,0.000630684,0.0163955,0.00998959,-0.000161972,0.00129311,7.44248e-05,0.00975258,-0.00016037,0.00115479,0.0139849,-0.0204733,0.000448265,0.00119213,-0.00897888
16,5,0,0,0,0,0,0,231.8,254,0,0,0,0,0,0,0,231.8,766,0,-0.000413475,0.00095047,0.000401802,0.0158233,0.0091885,0.00109688,0.000339432,-0.000764809,0.0924171,0.000182953,0.000735168,0.0138705,-0.0205115,0.000906029,0.00107769,-0.00897888
16,6,0,0,0,0,0,0,231.8,254,0,0,0,0,0,0,0,231.8,766,0,0.000654641,-0.000346527,0.000668831,0.0150604,0.00892147,-4.75312e-05,-4.2038e-05,-0.00011631,-0.0540673,-0.000503693,0.00115479,0.0161212,-0.0216559,0.000600853,0.00119213,-0.0081778
16,7,0,0,0,0,0,0,231.8,254,0,0,0,0,0,0,0,231.8,766,0,0.00103611,0.00095047,0.000287361,0.0158615,0.00903591,0.00117317,0.00197975,0.000494041,0.00479347,0.000106659,0.000391846,0.0135653,-0.0205496,0.000562706,0.00172619,-0.00813965
16,8,0,0,0,0,0,0,231.8,254,0,0,0,0,0,0,0,231.8,766,0,0.00160831,0.00133194,0.000974007,0.0159759,0.0122021,0.000639114,0.00106422,0.000303307,0.0948585,0.000526275,-0.0002948,0.01738,-0.0198248,0.000791588,0.00130657,-0.00775818
16,9,0,0,0,0,0,0,231.8,254,0,0,0,0,0,0,0,231.8,766,0,-0.000108299,0.000721588,-0.000132256,0.0168914,0.009837,0.000257645,0.00060646,-0.00011631,-0.0496423,0.000602569,0.000697021,0.0133746,-0.0204352,0.00117306,0.00130657,-0.00894073
17,0,0,0,0,0,0,0,231.8,254,0,0,0,0,0,0,0,231.8,766,0,-0.000375328,-0.000537262,-0.000475578,0.0152893,0.00571712,0.000105057,0.000377579,-0.000345192,0.00502235,-0.000198517,-0.000523682,0.0120776,-0.0222281,0.000181236,0.000619926,-0.00775818
17,1,0,0,0,0,0,0,231.8,254,0,0,0,0,0,0,0,231.8,766,0,0.000883522,0.000645294,-0.00070446,0.0149841,0.00720486,0.000372085,-0.000614243,0.000188866,0.110003,0.000526275,0.000124817,0.0149386,-0.0213889,-0.000352821,0.00142101,-0.00840668
17,2,0,0,0,0,0,0,231.8,254,0,0,0,0,0,0,0,231.8,766,0,-0.000146446,0.000607147,0.000897713,0.0164337,0.00617489,-9.38424e-06,0.000720901,-0.000345192,-0.05113,0.000182953,0.000697021,0.0135272,-0.0215033,0.000448265,-0.000524483,-0.00894073
17,3,0,0,0,0,0,0,231.8,254,0,0,0,0,0,0,0,231.8,766,0,0.00157017,0.000797882,0.00108845,0.016777,0.00804409,0.00140205,0.000949783,0.000875511,0.00620491,0.000526275,0.000391846,0.0120395,-0.0206641,0.0018597,0.000734367,-0.00833038
17,4,0,0,0,0,0,0,231.8,254,0,0,0,0,0,0,0,231.8,766,0,0.00141758,0.00110306,0.000859566,0.0169296,0.00510677,0.00056282,0.000797195,0.000608482,0.115916,0.000907745,0.00111664,0.0106662,-0.02013,2.86484e-05,0.00203136,-0.00844482
17,5,0,0,0,0,0,0,231.8,254,0,0,0,0,0,0,0,231.8,766,0,0.00145573,0.000797882,0.000630684,0.0158996,0.00506863,0.00117317,0.00117867,0.000608482,-0.0510918,-0.000122223,-0.000142212,0.0114672,-0.0219611,0.00113491,0.000619926,-0.00756744
17,6,0,0,0,0,0,0,231.8,254,0,0,0,0,0,0,0,231.8,766,0,0.000196877,0.000797882,0.000592537,0.0160522,0.00621304,0.000448379,0.000911636,0.000951805,-0.055288,-0.000236664,0.000124817,0.0137561,-0.0211981,0.000562706,0.00149731,-0.00802521
17,7,0,0,0,0,0,0,231.8,254,0,0,0,0,0,0,0,231.8,766,0,0.000730935,-0.000155793,0.000630684,0.0154037,0.00777706,0.00056282,0.00106422,-7.81631e-05,-0.0117242,0.000182953,1.03759e-05,0.0118869,-0.0205878,0.0012875,0.000429192,-0.00890259
17,8,0,0,0,0,0,0,231.8,254,0,0,0,0,0,0,0,231.8,766,0,0.000463906,0.000225677,0.000668831,0.0158233,0.00506863,0.00102058,0.00144569,0.000837364,0.0637687,0.00113663,0.00123108,0.0143664,-0.0210455,0.000371971,0.000810661,-0.00718597
17,9,0,0,0,0,0,0,231.8,254,0,0,0,0,0,0,0,231.8,766,0,0.000578347,0.00144638,2.03323e-05,0.0167389,0.00430569,0.00056282,0.00140755,0.000341454,0.0317634,0.00106033,-0.000409241,0.0203555,-0.0200156,0.000791588,0.00130657,-0.00840668
18,0,0,0,0,0,0,0,231.8,254,0,0,0,0,0,0,0,231.8,766,0,0.0005402,-0.000270233,0.000706978,0.0155944,0.00239834,0.000791702,0.000759048,-0.000230751,-0.0642525,0.000488129,-0.000409241,0.0160449,-0.0207404,0.000104942,0.000619926,-0.00855927
18,1,0,0,0,0,0,0,231.8,254,0,0,0,0,0,0,0,231.8,766,0,0.000311318,0.000683441,0.000974007,0.0163192,0.00491604,0.00117317,0.000415726,0.000532188,0.0801337,0.000869598,0.00096405,0.0155108,-0.0197867,0.000486412,0.00145916,-0.00764374
18,2,0,0,0,0,0,0,231.8,254,0,0,0,0,0,0,0,231.8,766,0,-0.000337181,0.00152267,0.00158436,0.0173492,0.0041531,0.0014402,0.00110237,-0.000192604,0.0296653,0.00106033,0.00111664,0.015549,-0.0209311,0.00113491,0.00199322,-0.00905518
18,3,0,0,0,0,0,0,231.8,254,0,0,0,0,0,0,0,231.8,766,0,-0.000108299,-0.000384674,-0.000628166,0.0156326,0.00316128,0.000486526,0.000263138,-0.000650368,-0.0623452,-0.000618134,-0.000332947,0.0155108,-0.0203589,0.00113491,-0.000295601,-0.00764374
18,4,0,0,0,0,0,0,231.8,254,0,0,0,0,0,0,0,231.8,766,0,0.000807228,-0.00019394,0.000363655,0.0154419,0.00270351,0.000333939,0.000530167,0.000341454,0.0894798,-7.78213e-06,0.000239258,0.017113,-0.0222662,0.000371971,0.00115398,-0.00909332
18,5,0,0,0,0,0,0,231.8,254,0,0,0,0,0,0,0,231.8,766,0,0.00141758,0.000301971,0.000974007,0.0161285,0.00655636,0.00113502,0.000911636,0.00137142,0.0398505,0.000526275,0.00123108,0.0166552,-0.0204352,0.0012112,0.0010014,-0.00852112
18,6,0,0,0,0,0,0,231.8,254,0,0,0,0,0,0,0,231.8,766,0,-0.000566063,0.000416412,0.000821419,0.0155944,0.00251278,0.000829849,0.000835342,3.62778e-05,-0.0645577,0.00106033,0.000277405,0.0188296,-0.021427,0.000333824,0.000772514,-0.00852112
18,7,0,0,0,0,0,0,231.8,254,0,0,0,0,0,0,0,231.8,766,0,0.00137943,0.000569,0.000706978,0.0163574,0.0035046,0.000753555,0.00152199,0.00076107,0.0909675,0.00071701,0.000506287,0.0177996,-0.0205878,0.000867882,0.000352898,-0.00878815
18,8,0,0,0,0,0,0,231.8,254,0,0,0,0,0,0,0,231.8,766,0,0.00145573,0.000607147,0.00154621,0.01651,0.0029324,0.00056282,0.000720901,0.000303307,0.0473655,0.00113663,0.000506287,0.0164645,-0.0205115,0.0012112,0.00184063,-0.00672821
18,9,0,0,0,0,0,0,231.8,254,0,0,0,0,0,0,0,231.8,766,0,-0.000184593,0.000645294,0.000516243,0.0158233,-4.30678e-05,-9.38424e-06,0.000301285,0.000150719,-0.0874459,0.000526275,0.000429993,0.0197451,-0.0204352,0.000143089,0.00103954,-0.00791077
19,0,0,0,0,0,0,0,231.8,254,0,0,0,0,0,0,0,231.8,766,0,0.00107426,-0.000575409,0.00131733,0.0163192,0.00144466,0.000524673,0.00125496,-4.00161e-05,-0.0216805,0.00121292,0.00130737,0.0184863,-0.02013,0.00151638,0.000734367,-0.00875
19,1,0,0,0,0,0,0,231.8,254,0,0,0,0,0,0,0,231.8,766,0,0.000120583,0.000225677,-5.59617e-05,0.0159759,0.00468716,0.000372085,0.00110237,0.00076107,-0.00775688,0.000640716,0.000124817,0.0175708,-0.0203207,0.00025753,0.000963249,-0.00806335
19,2,0,0,0,0,0,0,231.8,254,0,0,0,0,0,0,0,231.8,766,0,0.000387612,0.00095047,0.00093586,0.0155182,0.00571712,6.69097e-05,0.000301285,0.000227013,0.0518668,0.00125107,0.000239258,0.0168841,-0.0220374,0.00151638,9.57493e-06,-0.00894073
19,3,0,0,0,0,0,0,231.8,254,0,0,0,0,0,0,0,231.8,766,0,0.000578347,0.00110306,0.00135548,0.0163574,0.00972256,0.00102058,0.00133125,0.00110439,-0.0412118,0.00109848,0.0015744,0.0205844,-0.019863,0.00155453,0.00111584,-0.00741486
19,4,0,0,0,0,0,0,231.8,254,0,0,0,0,0,0,0,231.8,766,0,0.000463906,0.000416412,0.000287361,0.0161666,0.00594601,0.00136391,0.00133125,0.000379601,-0.00146263,-7.78213e-06,4.85228e-05,0.0155871,-0.0210455,0.000944176,0.00161175,-0.00882629
19,5,0,0,0,0,0,0,231.8,254,0,0,0,0,0,0,0,231.8,766,0,0.000692788,-4.13517e-05,0.000668831,0.015747,0.00339016,0.000257645,0.000835342,0.000112572,0.0541557,0.000602569,8.66698e-05,0.00936916,-0.0212744,0.00105862,-0.000410042,-0.007453
19,6,0,0,0,0,0,0,231.8,254,0,0,0,0,0,0,0,231.8,766,0,0.000235024,0.000874176,0.000745125,0.0159759,0.00361904,0.00124947,0.000377579,0.000951805,-0.0348031,0.000640716,0.000124817,0.00925472,-0.0207785,0.00144009,0.000314751,-0.00733856
19,7,0,0,0,0,0,0,231.8,254,0,0,0,0,0,0,0,231.8,766,0,0.00141758,0.000111236,0.000478096,0.0166244,0.00445827,0.000639114,0.000568314,0.000455895,0.00460274,0.000106659,0.000735168,0.010628,-0.0213889,0.000867882,0.00130657,-0.00791077
19,8,0,0,0,0,0,0,231.8,254,0,0,0,0,0,0,0,231.8,766,0,-0.000947532,0.000988617,0.000706978,0.0158996,0.00174984,0.000867996,0.000263138,-0.00087925,0.0733436,0.00163254,-0.000104065,0.0123828,-0.0208548,6.67954e-05,-0.000295601,-0.00791077
19,9,0,0,0,0,0,0,231.8,254,0,0,0,0,0,0,0,231.8,766,0,8.2436e-05,0.00018753,0.000821419,0.0154419,0.00213131,0.000600967,0.00060646,0.000379601,-0.0305688,0.000526275,0.000315552,0.0124972,-0.0217703,0.000715294,0.000658073,-0.00775818
20,0,0,0,0,0,0,0,231.8,254,0,0,0,0,0,0,0,231.8,766,0,0.000311318,-3.20468e-06,0.000325508,0.0162429,0.00144466,0.000791702,0.000682754,0.000989952,0.00494606,0.00136551,1.03759e-05,0.0135653,-0.0195578,0.00105862,-6.6719e-05,-0.00966553
20,1,0,0,0,0,0,0,231.8,254,0,0,0,0,0,0,0,231.8,766,0,-0.000680503,0.000912323,-0.000132256,0.0161666,0.00110134,0.000715408,0.00011055,-0.000421486,0.0827659,0.00102219,0.000353699,0.014519,-0.0221136,0.000333824,-0.00018116,-0.00714783
20,2,0,0,0,0,0,0,231.8,254,0,0,0,0,0,0,0,231.8,766,0,0.000997963,0.00133194,0.000821419,0.0158996,-0.000195656,0.000639114,0.000911636,0.00106625,-0.0303399,0.000831451,0.00107849,0.0136798,-0.0218848,0.00151638,0.00145916,-0.00920776
20,3,0,0,0,0,0,0,231.8,254,0,0,0,0,0,0,0,231.8,766,0,0.000769082,0.00095047,0.00108845,0.0160141,0.00010952,0.000333939,0.00159828,0.000494041,-0.0330865,0.00113663,0.000620727,0.0141757,-0.0204733,0.000448265,-2.8572e-05,-0.00920776
20,4,0,0,0,0,0,0,231.8,254,0,0,0,0,0,0,0,231.8,766,0,0.000311318,0.000301971,0.000859566,0.0167389,0.00354275,0.00117317,-3.89107e-06,0.0010281,-0.00409477,0.000602569,-0.000332947,0.0155871,-0.02013,0.00166897,0.00172619,-0.00844482
20,5,0,0,0,0,0,0,231.8,254,0,0,0,0,0,0,0,231.8,766,0,0.000769082,-0.000232087,-0.000551872,0.0165863,0.000796166,0.00102058,0.00098793,-0.00049778,0.0416053,0.000984039,0.000544433,0.0138324,-0.0213126,0.000333824,-0.000104866,-0.00901703
20,6,0,0,0,0,0,0,231.8,254,0,0,0,0,0,0,0,231.8,766,0,0.000196877,0.000530853,0.000821419,0.0154419,0.00224575,0.000410232,0.000682754,0.000341454,0.0258125,3.03648e-05,-0.000447388,0.0134127,-0.0212744,0.000944176,0.00111584,-0.0081015
20,7,0,0,0,0,0,0,231.8,254,0,0,0,0,0,0,0,231.8,766,0,0.000311318,0.000492706,0.00135548,0.0164337,0.000605431,0.00102058,0.00117867,0.00106625,-0.0355279,0.00106033,0.000544433,0.0151294,-0.019863,0.00170712,0.00184063,-0.00779633
20,8,0,0,0,0,0,0,231.8,254,0,0,0,0,0,0,0,231.8,766,0,0.000959816,-0.000346527,0.000325508,0.0155944,-0.00454441,-0.0010775,3.42559e-05,0.000150719,0.0532783,0.000869598,-0.000256653,0.0172274,-0.0220755,-0.000352821,-0.00056263,-0.00726227
20,9,0,0,0,0,0,0,231.8,254,0,0,0,0,0,0,0,231.8,766,0,0.000387612,0.000569,0.000363655,0.0162048,-0.00336185,0.000715408,0.000682754,0.000227013,0.0253928,0.00071701,0.00046814,0.0197451,-0.02116,0.0012875,0.00164989,-0.00962738
21,0,0,0,0,0,0,0,231.8,254,0,0,0,0,0,0,0,231.8,766,0,0.000273171,0.000874176,0.000974007,0.0164718,-0.00118748,0.000867996,0.00133125,0.000227013,-0.0337731,-4.59291e-05,0.00107849,0.0187533,-0.021427,0.00155453,0.0010014,-0.00897888
21,1,0,0,0,0,0,0,231.8,254,0,0,0,0,0,0,0,231.8,766,0,0.000235024,0.0012175,0.00120289,0.0168533,0.00144466,0.000181351,0.00114052,0.00076107,0.0638831,0.000755157,1.03759e-05,0.0182193,-0.0215033,0.00132565,0.000162163,-0.0081015
21,2,0,0,0,0,0,0,231.8,254,0,0,0,0,0,0,0,231.8,766,0,0.00107426,0.00018753,0.000211067,0.0155563,0.0048016,0.000906143,0.00125496,0.000532188,0.0345481,0.000640716,0.000124817,0.0203936,-0.0212363,0.00166897,0.00172619,-0.0081778
21,3,0,0,0,0,0,0,231.8,254,0,0,0,0,0,0,0,231.8,766,0,0.000196877,0.000721588,0.00108845,0.0146789,0.00461086,-0.000123825,0.00106422,0.000646629,-0.0376641,0.000640716,-0.000447388,0.0174945,-0.0205878,0.000639,0.0010014,-0.007453
21,4,0,0,0,0,0,0,231.8,254,0,0,0,0,0,0,0,231.8,766,0,0.00153202,0.0012175,0.00139362,0.0163192,0.00194057,0.00121132,0.00167458,0.000455895,0.066973,0.0014418,0.00123108,0.0143283,-0.020397,0.00144009,0.00119213,-0.00768188
21,5,0,0,0,0,0,0,231.8,254,0,0,0,0,0,0,0,231.8,766,0,0.00122685,0.00018753,0.000363655,0.01651,0.00331387,-0.000161972,0.00163643,0.000913658,0.0398887,0.000755157,0.000773315,0.0102465,-0.0220755,0.00182156,0.00107769,-0.00924591
21,6,0,0,0,0,0,0,231.8,254,0,0,0,0,0,0,0,231.8,766,0,4.4289e-05,0.000340118,-0.000246697,0.0161285,0.0035046,0.00094429,0.000453873,-0.00011631,-0.0542199,0.00106033,-0.000447388,0.0101702,-0.021427,0.000715294,0.000124016,-0.00852112
21,7,0,0,0,0,0,0,231.8,254,0,0,0,0,0,0,0,231.8,766,0,0.000120583,0.000340118,0.000859566,0.0157089,0.00335201,0.00121132,0.00133125,-0.000230751,-0.00966423,0.0014418,0.000887756,0.0107425,-0.0199393,0.00136379,0.000619926,-0.00974182
21,8,0,0,0,0,0,0,231.8,254,0,0,0,0,0,0,0,231.8,766,0,0.000883522,-0.000460968,0.00101215,0.0155944,0.00266537,0.000982437,0.00175087,0.000570335,0.00586159,0.000526275,0.00046814,0.0146334,-0.0209692,0.000867882,0.000619926,-0.00802521
21,9,0,0,0,0,0,0,231.8,254,0,0,0,0,0,0,0,231.8,766,0,0.000349465,0.000301971,0.000630684,0.0159759,0.00331387,0.00121132,0.000873489,0.00152401,0.0605262,-0.000618134,0.000353699,0.0166934,-0.0215033,0.00117306,0.000848808,-0.00821594
22,0,0,0,0,0,0,0,231.8,254,0,0,0,0,0,0,0,231.8,766,0,0.000654641,3.49423e-05,-0.000132256,0.0153656,-0.00103489,-0.000238266,-4.2038e-05,0.000455895,-0.0280129,0.00117477,-0.000447388,0.0145953,-0.0221518,0.000143089,0.000352898,-0.00875
22,1,0,0,0,0,0,0,231.8,254,0,0,0,0,0,0,0,231.8,766,0,0.0005402,0.00129379,0.000897713,0.0166626,-0.0015308,0.00105873,0.00121681,0.0010281,0.00395424,0.00132736,0.000277405,0.0146334,-0.0210074,0.000562706,0.000619926,-0.00844482
22,2,0,0,0,0,0,0,231.8,254,0,0,0,0,0,0,0,231.8,766,0,0.000959816,0.00140823,0.00146992,0.0168151,0.000452843,0.00094429,0.00175087,0.00106625,0.0627006,0.00170883,-0.000218506,0.0149386,-0.0208929,0.00189785,0.00164989,-0.00787262
22,3,0,0,0,0,0,0,231.8,254,0,0,0,0,0,0,0,231.8,766,0,0.000463906,0.00156082,0.00124104,0.0161666,0.00327572,0.000791702,0.00102608,0.00144772,-0.0260293,0.000793304,4.85228e-05,0.0156253,-0.0210074,0.00155453,0.00267986,-0.00756744
22,4,0,0,0,0,0,0,231.8,254,0,0,0,0,0,0,0,231.8,766,0,0.000235024,0.000149383,0.00188953,0.0173492,0.00335201,0.0014402,0.00117867,0.00076107,0.00666267,0.00167068,8.66698e-05,0.0152819,-0.0199011,0.000944176,0.000963249,-0.00813965
22,5,0,0,0,0,0,0,231.8,254,0,0,0,0,0,0,0,231.8,766,0,0.000463906,-3.20468e-06,0.000363655,0.0163955,0.00186428,0.00155464,0.000568314,0.000112572,0.0777686,0.000793304,0.000277405,0.0166552,-0.0211218,0.000677147,-0.00018116,-0.00829224
22,6,0,0,0,0,0,0,231.8,254,0,0,0,0,0,0,0,231.8,766,0,0.000273171,0.000569,0.000592537,0.0165863,0.00346645,0.000829849,0.00117867,0.00076107,-0.0286614,0.000564422,0.0010022,0.0134509,-0.0204733,0.00147823,0.000886955,-0.00855927
22,7,0,0,0,0,0,0,231.8,254,0,0,0,0,0,0,0,231.8,766,0,0.000425759,0.000111236,0.000363655,0.0155563,0.00621304,0.000639114,0.000949783,0.00118069,0.00639565,0.000869598,-6.59181e-05,0.0107425,-0.0204733,0.00136379,0.00115398,-0.00718597
22,8,0,0,0,0,0,0,231.8,254,0,0,0,0,0,0,0,231.8,766,0,0.000883522,0.000378265,5.84793e-05,0.0174636,0.00449642,0.000982437,0.00175087,0.000989952,0.0846351,0.000526275,0.000658874,0.00864437,-0.0210837,0.00144009,0.00115398,-0.0081015
22,9,0,0,0,0,0,0,231.8,254,0,0,0,0,0,0,0,231.8,766,0,-0.000299034,0.000683441,0.000859566,0.0158233,0.00155911,0.00155464,0.000911636,0.000951805,-0.0311791,0.00121292,0.000315552,0.0069659,-0.0204733,0.000677147,0.000925102,-0.00821594
23,0,0,0,0,0,0,0,231.8,254,0,0,0,0,0,0,0,231.8,766,0,0.0005402,0.000836029,5.84793e-05,0.0158615,0.000262108,0.000219498,0.000949783,0.000989952,-0.0341164,-0.000274811,0.000811462,0.0106662,-0.0210837,0.00105862,0.000162163,-0.0081778
23,1,0,0,0,0,0,0,231.8,254,0,0,0,0,0,0,0,231.8,766,0,0.000654641,0.000301971,0.000592537,0.0158615,0.0009869,-0.000276413,0.000224991,0.000837364,-0.00611656,0.00159439,0.0010022,0.00776699,-0.0213889,0.000753441,-0.000486336,-0.00955109
23,2,0,0,0,0,0,0,231.8,254,0,0,0,0,0,0,0,231.8,766,0,-0.000489769,0.000836029,-9.41086e-05,0.0162048,0.00201687,0.00094429,0.000224991,0.000150719,0.0409187,0.00113663,0.000620727,0.0103228,-0.0215796,-0.000390968,0.000810661,-0.0081778
23,3,0,0,0,0,0,0,231.8,254,0,0,0,0,0,0,0,231.8,766,0,0.00115055,0.000492706,-0.000475578,0.0168533,0.00266537,0.00102058,0.000949783,-7.81631e-05,0.0245918,0.000945892,0.000201111,0.0100177,-0.020397,0.000371971,0.000352898,-0.00775818
23,4,0,0,0,0,0,0,231.8,254,0,0,0,0,0,0,0,231.8,766,0,0.000807228,0.000912323,0.000897713,0.0160522,0.00510677,0.00113502,0.00133125,0.000722923,-0.0407159,0.000831451,0.00176514,0.0143664,-0.0210837,0.00166897,0.00184063,-0.00924591
23,5,0,0,0,0,0,0,231.8,254,0,0,0,0,0,0,0,231.8,766,0,-0.000527916,0.000149383,0.00017292,0.0164337,0.00529751,0.000867996,0.000530167,7.44248e-05,0.049845,0.000373688,0.000544433,0.0161593,-0.0207785,0.0012875,0.0010014,-0.00901703
23,6,0,0,0,0,0,0,231.8,254,0,0,0,0,0,0,0,231.8,766,0,0.000349465,-0.00126205,0.000478096,0.0152511,0.00556454,0.000143204,-0.00027092,0.000303307,0.0220359,0.00071701,0.000162964,0.0139468,-0.0219992,0.000600853,0.00069622,-0.00875
23,7,0,0,0,0,0,0,231.8,254,0,0,0,0,0,0,0,231.8,766,0,0.000502053,0.000721588,0.000134773,0.0152511,0.0066708,0.000524673,0.000301285,0.000646629,-0.037893,-0.00016037,-0.00101959,0.0156253,-0.0206641,0.000524559,0.000848808,-0.00787262
23,8,0,0,0,0,0,0,231.8,254,0,0,0,0,0,0,0,231.8,766,0,0.0005402,0.000378265,0.000592537,0.0161666,0.00674709,0.000867996,0.000759048,0.000951805,0.0612891,0.000564422,-0.000409241,0.0155871,-0.0217703,0.000181236,0.00103954,-0.00905518
23,9,0,0,0,0,0,0,231.8,254,0,0,0,0,0,0,0,231.8,766,0,4.4289e-05,0.000149383,0.000974007,0.0161285,0.00396236,0.000677261,0.00098793,-0.000192604,0.0318015,0.000869598,0.000124817,0.013222,-0.0206641,0.00025753,0.0015736,-0.00775818
24,0,0,0,0,0,0,0,231.8,254,0,0,0,0,0,0,0,231.8,766,0,0.00122685,0.000912323,0.000401802,0.0171203,0.00728115,-4.75312e-05,-8.0185e-05,-0.000154457,-0.0428139,0.00102219,0.0010022,0.0160067,-0.02013,0.000906029,-0.000219307,-0.00916962
24,1,0,0,0,0,0,0,231.8,254,0,0,0,0,0,0,0,231.8,766,0,-0.000375328,0.000530853,0.00055439,0.0169677,0.00674709,0.00128761,0.000911636,0.000722923,0.0640357,0.00174698,0.00096405,0.0163882,-0.0205878,0.000371971,9.57493e-06,-0.00787262
24,2,0,0,0,0,0,0,231.8,254,0,0,0,0,0,0,0,231.8,766,0,-0.000642356,0.000607147,-0.000361137,0.0153274,0.00461086,0.000677261,0.00117867,-4.00161e-05,0.037371,-0.000236664,0.000201111,0.0154727,-0.0210837,0.0012875,0.00176434,-0.00813965
24,3,0,0,0,0,0,0,231.8,254,0,0,0,0,0,0,0,231.8,766,0,0.000769082,0.00018753,0.000401802,0.0154037,0.00453457,0.000143204,0.00148384,0.000570335,-0.0602471,0.00147995,0.00123108,0.0169604,-0.0216177,0.000677147,0.00111584,-0.00844482
24,4,0,0,0,0,0,0,231.8,254,0,0,0,0,0,0,0,231.8,766,0,0.00015873,0.000340118,-0.000551872,0.0166244,0.0022076,0.000639114,0.000530167,0.00121883,-0.0135171,0.000259247,0.00046814,0.0168078,-0.0205115,6.67954e-05,0.000734367,-0.00722412
24,5,0,0,0,0,0,0,231.8,254,0,0,0,0,0,0,0,231.8,766,0,0.000845375,7.30893e-05,-0.000818901,0.015747,0.00403866,0.000867996,0.000568314,0.000722923,0.00681526,-0.000732575,-0.000714417,0.0158923,-0.0209692,0.0012112,0.00252728,-0.00909332
24,6,0,0,0,0,0,0,231.8,254,0,0,0,0,0,0,0,231.8,766,0,0.000883522,0.000759735,0.00112659,0.0156707,0.00438198,0.000639114,0.000453873,0.00076107,0.0632346,0.00102219,4.85228e-05,0.0143283,-0.0220374,0.000944176,0.000619926,-0.00936035
24,7,0,0,0,0,0,0,231.8,254,0,0,0,0,0,0,0,231.8,766,0,0.000273171,0.000530853,0.000821419,0.0160141,0.00827297,0.000486526,0.000453873,-0.000383339,-0.0311028,0.000602569,0.00130737,0.010628,-0.0210455,0.00102047,0.00164989,-0.00783447
24,8,0,0,0,0,0,0,231.8,254,0,0,0,0,0,0,0,231.8,766,0,0.0005402,0.000645294,0.000630684,0.0167389,0.00609859,0.00132576,0.000911636,0.00171474,0.00185616,0.000182953,0.00153625,0.00967434,-0.0213507,0.000562706,0.00138287,-0.00829224
24,9,0,0,0,0,0,0,231.8,254,0,0,0,0,0,0,0,231.8,766,0,0.00126499,0.00148453,0.0010503,0.0162048,0.00674709,0.00159279,0.00125496,0.000799217,0.0627006,0.00155624,0.00104034,0.0114672,-0.0192526,0.00136379,-2.8572e-05,-0.00630859
25,0,0,0,0,0,0,0,231.8,254,0,0,0,0,0,0,0,231.8,766,0,0.000387612,0.000416412,0.000592537,0.01651,0.00720486,0.000829849,-0.000232773,0.000951805,-0.0308739,0.000259247,0.00107849,0.0112765,-0.0203589,0.00117306,0.00123028,-0.0103522
25,1,0,0,0,0,0,0,231.8,254,0,0,0,0,0,0,0,231.8,766,0,-0.000184593,0.00018753,-0.000933342,0.0169677,0.0066708,0.000295792,0.000186844,-0.000192604,0.00315315,-0.00054184,0.000391846,0.0101702,-0.0206641,0.000410118,0.00058178,-0.00871185
25,2,0,0,0,0,0,0,231.8,254,0,0,0,0,0,0,0,231.8,766,0,6.14207e-06,0.000378265,0.000668831,0.0155182,0.00777706,0.000143204,0.000759048,-0.000154457,0.0772346,0.00102219,0.000239258,0.0129931,-0.0209692,0.00109676,0.00134472,-0.00836853
25,3,0,0,0,0,0,0,231.8,254,0,0,0,0,0,0,0,231.8,766,0,0.00103611,0.000912323,0.000478096,0.0159759,0.00949368,0.00105873,0.000453873,0.000494041,-0.0320946,0.000411835,-0.000142212,0.0130313,-0.0204352,0.000944176,0.000658073,-0.00848297
25,4,0,0,0,0,0,0,231.8,254,0,0,0,0,0,0,0,231.8,766,0,0.000387612,0.00110306,0.000745125,0.0160141,0.00640377,-0.000123825,0.00133125,0.000875511,0.00387795,0.00113663,-0.000638123,0.00952175,-0.0219992,0.000562706,0.000772514,-0.00779633
25,5,0,0,0,0,0,0,231.8,254,0,0,0,0,0,0,0,231.8,766,0,0.000463906,0.00102676,0.00101215,0.0156707,0.00987514,0.000867996,0.000224991,0.000417748,0.0849403,0.00102219,0.000620727,0.00868252,-0.0208548,0.000944176,0.00172619,-0.00813965
25,6,0,0,0,0,0,0,231.8,254,0,0,0,0,0,0,0,231.8,766,0,0.00134129,0.000797882,0.000974007,0.0157852,0.00869259,0.000753555,0.000644607,0.00106625,-0.0330102,0.000488129,0.000887756,0.0131457,-0.0217322,0.000410118,0.00164989,-0.00791077
25,7,0,0,0,0,0,0,231.8,254,0,0,0,0,0,0,0,231.8,766,0,0.000463906,-4.13517e-05,0.000897713,0.0159378,0.00880703,0.000105057,0.000415726,0.000837364,-0.037626,0.000373688,0.000544433,0.0171893,-0.0212744,-8.57925e-05,0.000314751,-0.0081015
25,8,0,0,0,0,0,0,231.8,254,0,0,0,0,0,0,0,231.8,766,0,0.000463906,0.000683441,0.000668831,0.0156707,0.0091885,-0.000123825,-8.0185e-05,3.62778e-05,-0.00661247,-0.000312958,0.000506287,0.0186007,-0.0208929,0.000104942,0.000658073,-0.00897888
25,9,0,0,0,0,0,0,231.8,254,0,0,0,0,0,0,0,231.8,766,0,0.00107426,-0.000155793,-5.59617e-05,0.0163192,0.00693783,0.000715408,0.000797195,-0.000459633,0.0680793,0.00113663,0.000658874,0.0195926,-0.0210837,0.00102047,0.000543633,-0.0075293
26,0,0,0,0,0,0,0,231.8,254,0,0,0,0,0,0,0,231.8,766,0,-0.00022274,0.000149383,-0.000475578,0.0155944,0.00548824,0.000715408,-0.000118332,0.000227013,0.171343,0.000449982,-0.0002948,0.025162,-0.0211218,0.000791588,0.000772514,-0.0081015
26,1,0,0,0,0,0,0,231.8,254,0,0,0,0,0,0,0,231.8,766,0,0.00130314,0.00133194,0.00143177,0.0173492,0.00266537,0.00124947,0.00148384,0.00121883,0.14464,0.000602569,0.00134552,0.0235598,-0.0207404,0.0018597,0.00180248,-0.00661377
26,2,0,0,0,0,0,0,231.8,254,0,0,0,0,0,0,0,231.8,766,0,0.00122685,0.000683441,0.000897713,0.0168533,0.00525936,0.000410232,0.00049202,0.000417748,0.110956,0.00140366,0.00058258,0.019707,-0.0201682,0.0012875,0.000276604,-0.00749115
26,3,0,0,0,0,0,0,231.8,254,0,0,0,0,0,0,0,231.8,766,0,0.0005402,0.000378265,0.000821419,0.0161285,0.00812038,0.000715408,0.000301285,0.000646629,-0.035566,0.00121292,0.00138367,0.0215762,-0.0205115,0.00102047,0.000162163,-0.00913147
26,4,0,0,0,0,0,0,231.8,254,0,0,0,0,0,0,0,231.8,766,0,0.000845375,3.49423e-05,0.000974007,0.0153274,0.00560268,0.000257645,0.000263138,-0.000230751,-0.100683,6.85118e-05,-0.000523682,0.0177233,-0.0207785,-0.00103947,-6.6719e-05,-0.00783447
26,5,0,0,0,0,0,0,231.8,254,0,0,0,0,0,0,0,231.8,766,0,0.000807228,0.000645294,0.000859566,0.0163574,0.00586971,-0.000238266,0.000224991,-0.000230751,0.0250877,-0.00016037,0.00107849,0.0131839,-0.0210455,-0.000581703,0.000505486,-0.010047
26,6,0,0,0,0,0,0,231.8,254,0,0,0,0,0,0,0,231.8,766,0,0.00107426,0.00095047,-0.00032299,0.0166244,0.00579342,0.00117317,0.000911636,0.000455895,-0.0111901,0.000602569,0.000544433,0.0122683,-0.0217703,0.00117306,0.00161175,-0.00852112
26,7,0,0,0,0,0,0,231.8,254,0,0,0,0,0,0,0,231.8,766,0,4.4289e-05,0.00018753,0.000134773,0.0157089,0.00369534,0.000867996,-3.89107e-06,-0.00011631,-0.0876748,0.000259247,0.000620727,0.0159686,-0.0208548,0.000562706,0.00119213,-0.00749115
26,8,0,0,0,0,0,0,231.8,254,0,0,0,0,0,0,0,231.8,766,0,-7.01519e-05,0.000454559,0.00017292,0.0157852,0.00144466,0.000372085,0.00049202,0.000417748,0.0318397,-0.00145737,0.000849609,0.0172274,-0.0216559,0.000600853,0.000391045,-0.00890259
26,9,0,0,0,0,0,0,231.8,254,0,0,0,0,0,0,0,231.8,766,0,0.00115055,0.000492706,-5.59617e-05,0.0158233,0.00186428,0.000333939,0.000224991,0.000570335,0.00681526,-0.000274811,0.000162964,0.0174945,-0.0212363,0.000448265,0.000886955,-0.00943665
27,0,0,0,0,0,0,0,231.8,254,0,0,0,0,0,0,0,231.8,766,0,0.000196877,0.00129379,0.000974007,0.0158233,0.00648006,0.000333939,0.00106422,0.000875511,-0.0909936,0.000602569,0.000124817,0.0174182,-0.0208167,0.000944176,0.000619926,-0.00894073
27,1,0,0,0,0,0,0,231.8,254,0,0,0,0,0,0,0,231.8,766,0,0.00107426,0.000454559,0.00101215,0.0163955,0.00613674,0.000333939,0.000835342,7.44248e-05,-0.0388467,-0.000236664,0.000773315,0.0142901,-0.021694,0.000639,0.000467339,-0.00943665
27,2,0,0,0,0,0,0,231.8,254,0,0,0,0,0,0,0,231.8,766,0,0.00126499,0.0012175,0.000439949,0.0155944,0.00552639,0.000600967,0.000530167,0.000570335,-0.0167977,0.00109848,0.000429993,0.014519,-0.0207022,0.00147823,0.000925102,-0.00737671
27,3,0,0,0,0,0,0,231.8,254,0,0,0,0,0,0,0,231.8,766,0,0.0011887,0.00018753,0.0010503,0.0165863,0.00476345,-0.000390854,0.000453873,0.000341454,0.0423682,0.0014418,0.00046814,0.0120395,-0.0219992,-0.000314674,0.00115398,-0.00890259
27,4,0,0,0,0,0,0,231.8,254,0,0,0,0,0,0,0,231.8,766,0,0.00122685,0.000111236,0.00108845,0.0170822,0.00689968,0.000677261,0.00156013,7.44248e-05,-0.0492226,0.000984039,0.000544433,0.0130694,-0.0201682,0.00117306,0.000772514,-0.00852112
27,5,0,0,0,0,0,0,231.8,254,0,0,0,0,0,0,0,231.8,766,0,0.00141758,0.000111236,0.000859566,0.0165481,0.00827297,0.00105873,0.000263138,0.000532188,-0.0107323,0.000297394,0.000429993,0.0107806,-0.0208167,0.00159267,0.00130657,-0.00741486
27,6,0,0,0,0,0,0,231.8,254,0,0,0,0,0,0,0,231.8,766,0,0.000845375,0.000759735,0.000363655,0.0155182,0.00579342,0.00124947,0.00148384,0.000837364,0.0527061,0.00071701,0.000544433,0.00898769,-0.0204352,0.00102047,0.000391045,-0.00783447
27,7,0,0,0,0,0,0,231.8,254,0,0,0,0,0,0,0,231.8,766,0,6.14207e-06,-0.000232087,0.000478096,0.0156326,0.000643578,0.000143204,0.000568314,0.000188866,-0.0389993,0.000755157,-0.000905151,0.0152819,-0.0200537,0.000104942,-0.000867805,-0.00756744
27,8,0,0,0,0,0,0,231.8,254,0,0,0,0,0,0,0,231.8,766,0,0.000921669,-0.000270233,9.66262e-05,0.015747,0.000948753,-0.000276413,-3.89107e-06,0.000341454,-0.00176781,0.000106659,0.000277405,0.0126879,-0.0215796,0.000524559,0.00184063,-0.00901703
27,9,0,0,0,0,0,0,231.8,254,0,0,0,0,0,0,0,231.8,766,0,0.000425759,0.00117935,0.000325508,0.0157852,0.00648006,0.000906143,0.000339432,0.000379601,0.0739158,0.00147995,0.000544433,0.0125735,-0.0216177,0.000486412,0.000963249,-0.00840668
28,0,0,0,0,0,0,0,231.8,254,0,0,0,0,0,0,0,231.8,766,0,0.000730935,0.0011412,5.84793e-05,0.0160904,0.00590786,0.000867996,0.000568314,0.000570335,-0.0345742,0.000984039,-0.00121033,0.01944,-0.0210074,-0.000276527,0.000391045,-0.00798706
28,1,0,0,0,0,0,0,231.8,254,0,0,0,0,0,0,0,231.8,766,0,0.000616494,0.000988617,0.000706978,0.0168914,0.00236019,0.000677261,0.000530167,0.000341454,0.00357277,0.000144806,-0.000485535,0.0183718,-0.0206259,0.00151638,0.000658073,-0.00806335
28,2,0,0,0,0,0,0,231.8,254,0,0,0,0,0,0,0,231.8,766,0,0.000654641,0.000340118,0.000516243,0.0158996,0.00167355,0.00056282,-0.000843124,0.000188866,0.0843681,0.00125107,-0.000218506,0.0177996,-0.0211218,0.000600853,-0.00018116,-0.00760559
28,3,0,0,0,0,0,0,231.8,254,0,0,0,0,0,0,0,231.8,766,0,0.000425759,0.000149383,-0.00020855,0.0154037,0.00434383,0.00113502,0.000186844,3.62778e-05,-0.0323235,0.000526275,0.000658874,0.0120013,-0.0228003,6.67954e-05,0.00130657,-0.00875
28,4,0,0,0,0,0,0,231.8,254,0,0,0,0,0,0,0,231.8,766,0,0.00160831,0.000416412,0.000363655,0.0162811,0.00144466,0.000105057,0.00060646,0.000532188,-0.0353753,0.00125107,0.000391846,0.0139087,-0.0207404,0.000371971,0.000848808,-0.00737671
28,5,0,0,0,0,0,0,231.8,254,0,0,0,0,0,0,0,231.8,766,0,-0.000794944,0.00137009,0.000401802,0.0162429,-0.00206486,0.000524673,-4.2038e-05,-0.000192604,-0.0055825,0.000984039,0.000735168,0.0174563,-0.0213889,0.000829735,0.000886955,-0.00943665
28,6,0,0,0,0,0,0,231.8,254,0,0,0,0,0,0,0,231.8,766,0,0.0011124,0.000607147,0.000211067,0.0164337,0.00190243,0.00132576,0.00114052,0.000341454,0.042559,0.000182953,-0.000752564,0.022835,-0.0204352,0.00132565,0.000734367,-0.00833038
28,7,0,0,0,0,0,0,231.8,254,0,0,0,0,0,0,0,231.8,766,0,0.0011124,0.00137009,0.00181324,0.0162048,-0.0028278,0.00121132,0.000949783,0.000227013,0.0287498,0.000793304,0.000811462,0.0155871,-0.0214651,0.00136379,0.000925102,-0.00642303
28,8,0,0,0,0,0,0,231.8,254,0,0,0,0,0,0,0,231.8,766,0,-3.20049e-05,0.000988617,-5.59617e-05,0.0159759,-0.00076786,-0.000238266,-0.000881271,0.000150719,-0.0388467,0.000488129,-2.77711e-05,0.0124209,-0.0218466,0.000562706,-0.000944099,-0.00855927
28,9,0,0,0,0,0,0,231.8,254,0,0,0,0,0,0,0,231.8,766,0,0.000387612,-0.000117646,0.000363655,0.0166244,-0.000577125,2.87627e-05,0.00049202,0.000341454,0.0548804,0.000602569,0.000620727,0.0159686,-0.0211981,0.00109676,0.000658073,-0.00783447
29,0,0,0,0,0,0,0,231.8,254,0,0,0,0,0,0,0,231.8,766,0,-0.000909385,0.000492706,0.000211067,0.0150985,0.00171169,0.000982437,-0.000347214,-0.00114628,0.0255836,0.000678863,-0.000447388,0.0201648,-0.0221136,0.000524559,-0.000448189,-0.00714783
29,1,0,0,0,0,0,0,231.8,254,0,0,0,0,0,0,0,231.8,766,0,0.000578347,0.000301971,0.000363655,0.0152893,0.00201687,0.000410232,-0.000423508,0.000303307,-0.0353753,0.000678863,0.000315552,0.0195544,-0.0216559,-0.000314674,0.00153545,-0.00878815
29,2,0,0,0,0,0,0,231.8,254,0,0,0,0,0,0,0,231.8,766,0,-0.000184593,0.000988617,-0.000666313,0.0160141,0.00113949,2.87627e-05,0.000530167,0.000455895,0.0663627,-0.000503693,-0.000867005,0.0161975,-0.0218085,-9.49856e-06,9.57493e-06,-0.00730042
29,3,0,0,0,0,0,0,231.8,254,0,0,0,0,0,0,0,231.8,766,0,0.000463906,0.000378265,0.000630684,0.0157852,-0.000615272,0.000486526,0.000682754,0.000341454,0.0356544,0.00102219,-0.000981445,0.0166552,-0.0220374,0.000791588,0.00130657,-0.00821594
29,4,0,0,0,0,0,0,231.8,254,0,0,0,0,0,0,0,231.8,766,0,8.2436e-05,0.000645294,0.00017292,0.0164718,0.000796166,0.00102058,0.00102608,0.000455895,-0.039457,0.00102219,-0.000485535,0.0157779,-0.0206641,0.000944176,0.000352898,-0.00863556
29,5,0,0,0,0,0,0,231.8,254,0,0,0,0,0,0,0,231.8,766,0,0.0005402,0.0011412,0.000668831,0.0161666,-0.00271336,0.000143204,0.00114052,0.00026516,0.0701011,0.00128921,0.000315552,0.01738,-0.0209311,0.000753441,0.000658073,-0.0075293
29,6,0,0,0,0,0,0,231.8,254,0,0,0,0,0,0,0,231.8,766,0,0.0005402,0.00140823,0.00166065,0.0172729,-8.12148e-05,0.00109688,0.00110237,0.00133327,0.0422919,0.0014418,0.000697021,0.0169223,-0.0206259,0.000753441,0.00164989,-0.00813965
29,7,0,0,0,0,0,0,231.8,254,0,0,0,0,0,0,0,231.8,766,0,-0.000337181,0.000301971,0.000897713,0.0169677,0.00277981,0.000639114,0.000263138,-0.000574074,-0.0566994,0.000488129,0.000391846,0.0146716,-0.020397,0.00105862,-0.000600777,-0.00951294
29,8,0,0,0,0,0,0,231.8,254,0,0,0,0,0,0,0,231.8,766,0,8.2436e-05,0.000683441,0.000668831,0.0162048,-4.30678e-05,0.00109688,0.000148697,0.000722923,-0.0100076,0.00071701,0.00134552,0.0129931,-0.0208548,0.00124935,0.00161175,-0.00806335
29,9,0,0,0,0,0,0,231.8,254,0,0,0,0,0,0,0,231.8,766,0,0.0005402,0.00140823,0.000363655,0.0166244,-0.000233803,0.0014402,0.00110237,0.000379601,0.0075782,0.000869598,4.85228e-05,0.00994137,-0.0207785,0.0012875,0.00123028,-0.00787262
30,0,0,0,0,0,0,0,231.8,254,0,0,0,0,0,0,0,231.8,766,0,8.2436e-05,0.000225677,0.00127918,0.0160141,0.000147667,2.87627e-05,0.000453873,-4.00161e-05,0.0657142,0.000602569,1.03759e-05,0.0113147,-0.0211218,0.00025753,0.00058178,-0.00779633
30,1,0,0,0,0,0,0,231.8,254,0,0,0,0,0,0,0,231.8,766,0,0.000883522,0.000607147,-0.000284843,0.0158615,-0.000958595,0.000753555,0.000720901,0.000799217,-0.0286614,0.000182953,0.000697021,0.0149386,-0.0209692,0.00147823,0.00199322,-0.00852112
30,2,0,0,0,0,0,0,231.8,254,0,0,0,0,0,0,0,231.8,766,0,0.00149387,0.000225677,0.00116474,0.0167007,0.00121578,0.000677261,0.00106422,0.00144772,0.00490791,0.00163254,0.00142181,0.0168078,-0.0215796,0.00136379,0.000772514,-0.00619415
30,3,0,0,0,0,0,0,231.8,254,0,0,0,0,0,0,0,231.8,766,0,0.00015873,0.000988617,0.00101215,0.0155944,0.00182613,0.0014402,0.000682754,-0.000421486,0.0659812,0.00113663,0.000735168,0.0154345,-0.02013,0.000982323,0.00115398,-0.00825409
30,4,0,0,0,0,0,0,231.8,254,0,0,0,0,0,0,0,231.8,766,0,0.000235024,0.000225677,0.000592537,0.01548,-0.00187412,-0.00123009,0.000873489,0.000227013,-0.0322091,0.00109848,0.000353699,0.0143283,-0.0216559,-4.76455e-05,0.00187878,-0.00897888
30,5,0,0,0,0,0,0,231.8,254,0,0,0,0,0,0,0,231.8,766,0,8.2436e-05,-0.000499115,0.000478096,0.0158996,-0.00401035,0.000486526,0.000263138,0.000303307,0.00563271,0.00109848,-0.000371094,0.0133746,-0.0213126,0.00105862,0.000124016,-0.0081778
30,6,0,0,0,0,0,0,231.8,254,0,0,0,0,0,0,0,231.8,766,0,0.000654641,0.000530853,0.00127918,0.017044,-0.00442997,0.00147835,0.0019416,-0.000383339,0.0804008,0.00121292,0.00203217,0.0118869,-0.0199011,0.00224117,0.000925102,-0.00802521
30,7,0,0,0,0,0,0,231.8,254,0,0,0,0,0,0,0,231.8,766,0,4.4289e-05,-0.000766144,0.000478096,0.0166244,-0.00370518,0.00117317,0.00144569,0.000112572,-0.0323998,0.000106659,0.00123108,0.0128024,-0.0209692,0.00124935,0.00115398,-0.00951294
30,8,0,0,0,0,0,0,231.8,254,0,0,0,0,0,0,0,231.8,766,0,8.2436e-05,0.00095047,0.00055439,0.0152511,-0.0034,0.00105873,0.000644607,0.000227013,0.00399239,0.000526275,-0.000180359,0.011658,-0.0209311,0.000982323,0.00119213,-0.00833038
30,9,0,0,0,0,0,0,231.8,254,0,0,0,0,0,0,0,231.8,766,0,0.000387612,0.000378265,0.000668831,0.0162048,-0.00317112,-8.56782e-05,0.00098793,0.000684776,0.0870765,0.000831451,0.00046814,0.0118487,-0.0212744,0.00109676,0.000848808,-0.00871185
31,0,0,0,0,0,0,0,231.8,254,0,0,0,0,0,0,0,231.8,766,0,0.000959816,0.000912323,0.00211842,0.0170059,-0.00542179,0.00147835,0.000682754,0.000875511,-0.0326287,0.00186142,0.00142181,0.0121157,-0.0205115,0.00140194,-0.000295601,-0.00642303
31,1,0,0,0,0,0,0,231.8,254,0,0,0,0,0,0,0,231.8,766,0,0.000959816,-7.94986e-05,-1.78147e-05,0.0160904,-0.00412479,0.000524673,0.000949783,0.000684776,-0.0386941,0.00102219,-0.000714417,0.00978878,-0.0214651,0.000562706,0.000886955,-0.00829224
31,2,0,0,0,0,0,0,231.8,254,0,0,0,0,0,0,0,231.8,766,0,0.000730935,0.000874176,0.000287361,0.0167389,-0.00351444,6.69097e-05,0.000301285,3.62778e-05,-0.00680321,0.00106033,-0.000790711,0.00719479,-0.0208929,0.000906029,0.000467339,-0.00829224
31,3,0,0,0,0,0,0,231.8,254,0,0,0,0,0,0,0,231.8,766,0,0.000654641,0.000912323,0.00101215,0.0164718,-0.00187412,0.000791702,0.000873489,0.000150719,0.0697959,0.00128921,0.000887756,0.00914028,-0.0213126,0.00147823,0.00126843,-0.0075293
31,4,0,0,0,0,0,0,231.8,254,0,0,0,0,0,0,0,231.8,766,0,0.00141758,0.000263824,0.00017292,0.0164718,0.00457272,0.00056282,7.24029e-05,0.000837364,0.173365,0.00113663,0.00123108,0.0139087,-0.0215033,0.000562706,-0.000448189,-0.00875
31,5,0,0,0,0,0,0,231.8,254,0,0,0,0,0,0,0,231.8,766,0,6.14207e-06,0.000416412,0.000134773,0.0158996,0.00712856,0.000257645,-0.000385361,3.62778e-05,0.14506,-0.000770722,-0.000828858,0.0141375,-0.0213507,2.86484e-05,0.000467339,-0.00916962
31,6,0,0,0,0,0,0,231.8,254,0,0,0,0,0,0,0,231.8,766,0,0.000311318,0.000301971,0.000287361,0.01445,0.00819668,0.000829849,0.000720901,0.000875511,0.109698,-0.000732575,-0.00113403,0.00940731,-0.0210455,0.00102047,0.00119213,-0.00878815
31,7,0,0,0,0,0,0,231.8,254,0,0,0,0,0,0,0,231.8,766,0,0.000502053,3.49423e-05,0.000211067,0.0166626,0.00785336,0.000105057,0.000682754,0.000608482,-0.0370538,0.00121292,0.000773315,0.0114672,-0.0213507,0.000410118,0.000848808,-0.00916962
31,8,0,0,0,0,0,0,231.8,254,0,0,0,0,0,0,0,231.8,766,0,6.14207e-06,0.000912323,0.00112659,0.0166626,0.00903591,0.0014402,0.000759048,7.44248e-05,-0.101904,0.00140366,0.00184143,0.0117724,-0.0210837,0.00147823,0.000162163,-0.00802521
31,9,0,0,0,0,0,0,231.8,254,0,0,0,0,0,0,0,231.8,766,0,0.00145573,0.00102676,0.00116474,0.0167389,0.00911221,0.00163094,0.00098793,7.44248e-05,0.024668,3.03648e-05,-0.000104065,0.0129168,-0.0210837,0.000867882,0.000505486,-0.00791077
32,0,0,0,0,0,0,0,231.8,254,0,0,0,0,0,0,0,231.8,766,0,0.00015873,0.000721588,0.00101215,0.0168914,0.0105999,0.000829849,0.00117867,0.000608482,-0.0115716,0.00193771,0.00123108,0.017113,-0.0200537,0.00216488,0.00058178,-0.00783447
32,1,0,0,0,0,0,0,231.8,254,0,0,0,0,0,0,0,231.8,766,0,0.000463906,0.000263824,0.00093586,0.0163192,0.00838741,0.000829849,0.000873489,0.00026516,-0.0909936,0.000793304,0.000239258,0.015549,-0.0219992,0.00117306,0.00103954,-0.00852112
32,2,0,0,0,0,0,0,231.8,254,0,0,0,0,0,0,0,231.8,766,0,0.000196877,0.000836029,-0.000170403,0.0155182,0.00827297,2.87627e-05,0.000301285,-0.000307045,0.0318778,-0.000732575,0.000315552,0.016083,-0.0218466,0.000486412,4.77219e-05,-0.00813965
32,3,0,0,0,0,0,0,231.8,254,0,0,0,0,0,0,0,231.8,766,0,0.000807228,0.000645294,0.000859566,0.0155563,0.00930294,0.000639114,0.00205605,0.000379601,0.00574715,0.000488129,1.03759e-05,0.0223773,-0.021694,0.00136379,0.00191692,-0.00890259
32,4,0,0,0,0,0,0,231.8,254,0,0,0,0,0,0,0,231.8,766,0,0.00137943,0.000836029,0.00108845,0.0163574,0.00907406,0.000791702,0.0013694,0.000570335,-0.0929391,0.0002211,0.000620727,0.0202029,-0.0207022,0.00136379,0.000810661,-0.00958923
32,5,0,0,0,0,0,0,231.8,254,0,0,0,0,0,0,0,231.8,766,0,0.000730935,-0.00126205,-5.59617e-05,0.0166244,0.00716671,-4.75312e-05,0.00140755,0.000532188,-0.0398766,-0.00054184,0.00115479,0.0163501,-0.0212363,0.00124935,0.000543633,-0.00924591
32,6,0,0,0,0,0,0,231.8,254,0,0,0,0,0,0,0,231.8,766,0,0.000845375,0.00140823,0.000745125,0.0157089,0.00453457,0.00121132,0.00102608,0.000684776,-0.0183617,0.000564422,0.00119293,0.0134127,-0.0215414,0.000677147,0.00126843,-0.00844482
32,7,0,0,0,0,0,0,231.8,254,0,0,0,0,0,0,0,231.8,766,0,-0.000146446,3.49423e-05,5.84793e-05,0.0158233,0.00438198,0.000295792,0.000224991,0.000570335,0.0434745,0.000259247,-0.000218506,0.0131839,-0.021427,0.00124935,0.000162163,-0.00928406
32,8,0,0,0,0,0,0,231.8,254,0,0,0,0,0,0,0,231.8,766,0,4.4289e-05,-0.000727997,0.000859566,0.016777,0.00411495,0.000333939,0.000759048,0.000646629,-0.0525796,0.0002211,0.00138367,0.0150531,-0.0210837,0.00105862,0.00134472,-0.00714783
32,9,0,0,0,0,0,0,231.8,254,0,0,0,0,0,0,0,231.8,766,0,0.000502053,0.0011412,0.000630684,0.015747,0.00716671,0.000906143,0.00114052,0.000913658,-0.0121819,0.000297394,0.00126923,0.014519,-0.0203589,0.000906029,0.00145916,-0.00840668
33,0,0,0,0,0,0,0,231.8,254,0,0,0,0,0,0,0,231.8,766,0,0.00137943,0.000759735,0.000668831,0.0163192,0.00464901,0.00128761,0.000644607,0.00121883,0.0531638,0.000373688,0.000162964,0.0167697,-0.0213507,-4.76455e-05,0.00020031,-0.00806335
33,1,0,0,0,0,0,0,231.8,254,0,0,0,0,0,0,0,231.8,766,0,0.000921669,0.000111236,0.00166065,0.0164337,0.00369534,0.00205055,0.00186531,0.000532188,-0.0406777,0.000907745,0.000353699,0.0120776,-0.0199393,0.0018597,0.00306133,-0.00733856
33,2,0,0,0,0,0,0,231.8,254,0,0,0,0,0,0,0,231.8,766,0,0.000502053,0.000378265,0.000706978,0.0164337,0.00567898,0.000486526,0.000530167,-4.00161e-05,-0.00138634,0.000182953,0.0016507,0.0136416,-0.0223425,0.00136379,0.00149731,-0.00924591
33,3,0,0,0,0,0,0,231.8,254,0,0,0,0,0,0,0,231.8,766,0,0.000807228,0.000988617,0.00120289,0.015747,0.00926479,0.00117317,0.000644607,0.000379601,0.0749076,0.000831451,0.0010022,0.0139849,-0.0195959,0.000829735,0.000925102,-0.0081015
33,4,0,0,0,0,0,0,231.8,254,0,0,0,0,0,0,0,231.8,766,0,0.000654641,0.00133194,0.000401802,0.0162429,0.0106381,0.000715408,0.00121681,0.000532188,-0.0361764,0.000259247,0.00107849,0.0137561,-0.0207404,0.000219383,0.00069622,-0.00897888
33,5,0,0,0,0,0,0,231.8,254,0,0,0,0,0,0,0,231.8,766,0,0.00126499,0.000607147,0.00135548,0.0178451,0.0118969,0.00094429,0.00186531,0.00076107,0.00246651,0.000678863,4.85228e-05,0.017113,-0.0202826,0.00182156,0.00058178,-0.0106573
33,6,0,0,0,0,0,0,231.8,254,0,0,0,0,0,0,0,231.8,766,0,0.000196877,0.000111236,0.000478096,0.0155944,0.0112866,0.000982437,0.000339432,-0.000154457,0.0850547,0.000335541,0.000735168,0.0226443,-0.0210455,0.000753441,0.00180248,-0.00901703
33,7,0,0,0,0,0,0,231.8,254,0,0,0,0,0,0,0,231.8,766,0,0.000387612,-7.94986e-05,-0.000170403,0.015747,0.00827297,-0.00100121,0.000415726,0.00106625,-0.0330865,0.000144806,-0.000180359,0.0179904,-0.0223044,-9.49856e-06,0.000658073,-0.00890259
33,8,0,0,0,0,0,0,231.8,254,0,0,0,0,0,0,0,231.8,766,0,0.00107426,0.000607147,0.00112659,0.0160522,0.00766262,0.000181351,0.00060646,-4.00161e-05,-0.0359856,0.000678863,0.00096405,0.0149005,-0.019863,0.000982323,0.000505486,-0.00836853
33,9,0,0,0,0,0,0,231.8,254,0,0,0,0,0,0,0,231.8,766,0,0.000425759,0.00095047,-0.000246697,0.0162811,0.00854,0.000143204,3.42559e-05,0.00114254,-0.00577324,-0.000274811,-6.59181e-05,0.0161593,-0.0222662,0.00102047,0.000124016,-0.0101233
34,0,0,0,0,0,0,0,231.8,254,0,0,0,0,0,0,0,231.8,766,0,-0.000299034,0.000492706,0.00131733,0.0163574,0.00884518,0.000295792,0.00102608,0.000875511,0.0429404,0.000869598,0.000239258,0.0157779,-0.0214651,0.000410118,0.0015736,-0.00905518
34,1,0,0,0,0,0,0,231.8,254,0,0,0,0,0,0,0,231.8,766,0,0.000616494,0.000569,-9.41086e-05,0.0157089,0.0115536,0.00132576,0.000453873,-0.000383339,0.0289787,0.000335541,-0.0002948,0.0157779,-0.0203207,0.00113491,0.00107769,-0.00760559
34,2,0,0,0,0,0,0,231.8,254,0,0,0,0,0,0,0,231.8,766,0,0.0011124,0.000301971,0.000668831,0.0169296,0.0109051,0.00121132,0.00152199,0.000188866,-0.0409829,0.000869598,0.000620727,0.0149386,-0.0210074,0.0012112,0.00103954,-0.00909332
34,3,0,0,0,0,0,0,231.8,254,0,0,0,0,0,0,0,231.8,766,0,-7.01519e-05,-0.000117646,0.00093586,0.0160904,0.012164,0.000677261,0.00129311,-0.00049778,0.0564826,-0.000236664,0.000124817,0.0123065,-0.0202826,0.000867882,0.000925102,-0.00768188
34,4,0,0,0,0,0,0,231.8,254,0,0,0,0,0,0,0,231.8,766,0,0.000349465,-0.000346527,-0.00104778,0.0158996,0.0106381,0.000219498,0.000148697,0.000227013,0.0262702,-0.000427399,-0.000752564,0.00879696,-0.0219229,-0.00023838,0.000963249,-0.00829224
34,5,0,0,0,0,0,0,231.8,254,0,0,0,0,0,0,0,231.8,766,0,0.0005402,-0.000384674,-0.000246697,0.0158615,0.00819668,-8.56782e-05,0.00125496,0.000303307,-0.0365197,0.000602569,-0.000142212,0.0122302,-0.0199774,0.000600853,0.000314751,-0.0081015
34,6,0,0,0,0,0,0,231.8,254,0,0,0,0,0,0,0,231.8,766,0,-0.00022274,0.000645294,0.000287361,0.0147934,0.00808224,0.000486526,0.000682754,-0.000764809,0.0666297,-4.59291e-05,-0.000523682,0.0142901,-0.0234106,-8.57925e-05,0.000848808,-0.00890259
34,7,0,0,0,0,0,0,231.8,254,0,0,0,0,0,0,0,231.8,766,0,0.000959816,0.000454559,0.00055439,0.0166244,0.0123928,0.000372085,0.00060646,0.000494041,0.0365318,0.000488129,0.00123108,0.0176471,-0.020397,0.000295677,0.000391045,-0.00901703
34,8,0,0,0,0,0,0,231.8,254,0,0,0,0,0,0,0,231.8,766,0,-0.000146446,3.49423e-05,0.000745125,0.0171966,0.0097607,0.000791702,0.000835342,-1.86916e-06,-0.0406777,-0.000122223,0.000697021,0.0162356,-0.02013,0.000982323,8.58689e-05,-0.00859741
34,9,0,0,0,0,0,0,231.8,254,0,0,0,0,0,0,0,231.8,766,0,0.000463906,-0.000727997,-0.00032299,0.0149841,0.0105618,0.000333939,0.00060646,-1.86916e-06,0.0690711,-0.000923309,-0.000180359,0.0149005,-0.0219229,-0.000581703,0.00111584,-0.00920776
35,0,0,0,0,0,0,0,231.8,254,0,0,0,0,0,0,0,231.8,766,0,0.00134129,0.000607147,5.84793e-05,0.0157852,0.00960812,0.000677261,0.000415726,0.000150719,0.0417579,0.000411835,0.000925903,0.0142138,-0.0208167,0.00124935,0.000391045,-0.00875
35,1,0,0,0,0,0,0,231.8,254,0,0,0,0,0,0,0,231.8,766,0,0.00103611,0.000263824,0.000363655,0.0162048,0.0066708,0.000143204,0.000568314,0.000379601,-0.0575387,0.000602569,-0.0002948,0.0189059,-0.0207404,0.000486412,-0.000371895,-0.0081015
35,2,0,0,0,0,0,0,231.8,254,0,0,0,0,0,0,0,231.8,766,0,0.0005402,-0.000117646,0.000859566,0.0153656,0.00411495,0.000753555,0.00106422,-0.000459633,-0.0104653,0.000182953,0.00058258,0.0190585,-0.0211218,0.00105862,0.00107769,-0.00890259
35,3,0,0,0,0,0,0,231.8,254,0,0,0,0,0,0,0,231.8,766,0,0.000311318,0.000569,0.000668831,0.0163574,0.00312313,0.000257645,0.000797195,0.000913658,0.0038398,0.000678863,0.000544433,0.014519,-0.0218085,0.00025753,0.00123028,-0.00699524
35,4,0,0,0,0,0,0,231.8,254,0,0,0,0,0,0,0,231.8,766,0,0.000578347,0.00137009,0.000592537,0.0168151,0.00255093,0.000715408,0.000530167,0.000837364,0.0674308,0.00128921,0.000658874,0.012955,-0.019863,0.000486412,0.00164989,-0.00775818
35,5,0,0,0,0,0,0,231.8,254,0,0,0,0,0,0,0,231.8,766,0,0.000502053,0.000836029,0.000897713,0.017044,0.0054501,0.00117317,0.00098793,0.000150719,-0.0284707,0.000831451,0.00130737,0.00936916,-0.0195197,0.00178341,0.00199322,-0.00852112
35,6,0,0,0,0,0,0,231.8,254,0,0,0,0,0,0,0,231.8,766,0,0.000959816,-4.13517e-05,0.000630684,0.0161285,0.00571712,0.00113502,0.00148384,0.00106625,0.0019706,0.0015181,8.66698e-05,0.0107043,-0.021427,0.000829735,0.00149731,-0.00840668
35,7,0,0,0,0,0,0,231.8,254,0,0,0,0,0,0,0,231.8,766,0,0.000692788,0.000683441,-0.00020855,0.0150222,0.00648006,-0.000238266,0.000148697,0.000150719,0.0666297,-0.000579987,0.00111664,0.0149005,-0.0212744,-0.000162086,0.00145916,-0.00852112
35,8,0,0,0,0,0,0,231.8,254,0,0,0,0,0,0,0,231.8,766,0,0.000959816,0.00095047,0.000478096,0.0153656,0.00464901,0.000715408,0.0013694,0.000989952,-0.0312936,0.00132736,-0.000142212,0.0129931,-0.0208548,0.000944176,-0.000104866,-0.00920776
35,9,0,0,0,0,0,0,231.8,254,0,0,0,0,0,0,0,231.8,766,0,-3.20049e-05,0.00190414,0.00101215,0.0158615,0.00564083,0.0014402,0.000682754,0.000913658,0.00586159,0.000793304,1.03759e-05,0.0162738,-0.0206259,0.000906029,0.00134472,-0.00844482
36,0,0,0,0,0,0,0,231.8,254,0,0,0,0,0,0,0,231.8,766,0,0.00160831,0.000607147,0.00055439,0.0173492,0.00682339,0.000829849,0.00117867,0.00121883,0.0817359,0.00125107,0.000773315,0.0126117,-0.0206641,0.00159267,0.00226025,-0.00733856
36,1,0,0,0,0,0,0,231.8,254,0,0,0,0,0,0,0,231.8,766,0,0.000883522,0.000416412,0.000859566,0.0162048,0.00335201,0.00121132,0.000301285,0.000875511,-0.0319802,0.000945892,0.00058258,0.0105517,-0.0216177,-9.49856e-06,0.000543633,-0.00760559
36,2,0,0,0,0,0,0,231.8,254,0,0,0,0,0,0,0,231.8,766,0,0.000273171,0.00106491,0.00055439,0.0157089,0.00331387,0.000715408,0.000148697,0.000913658,0.00372536,-4.59291e-05,0.000391846,0.0123446,-0.0210074,0.000295677,0.00020031,-0.00806335
36,3,0,0,0,0,0,0,231.8,254,0,0,0,0,0,0,0,231.8,766,0,0.000883522,0.00018753,0.000821419,0.01651,0.00560268,0.000677261,0.000720901,0.00125698,0.0870383,0.000793304,0.000353699,0.0095599,-0.02116,0.00124935,0.000925102,-0.00882629
36,4,0,0,0,0,0,0,231.8,254,0,0,0,0,0,0,0,231.8,766,0,0.00122685,0.00102676,0.000134773,0.0167007,0.00606045,0.000639114,-0.000156479,0.000837364,-0.0332391,0.000678863,0.000429993,0.0115435,-0.0205496,0.000791588,0.00206951,-0.00783447
36,5,0,0,0,0,0,0,231.8,254,0,0,0,0,0,0,0,231.8,766,0,6.14207e-06,0.000569,-0.000437431,0.0160522,0.0029324,0.00113502,0.000530167,0.000227013,-0.0397622,-0.000198517,-0.000790711,0.0138324,-0.0210837,0.00132565,0.00172619,-0.00871185
36,6,0,0,0,0,0,0,231.8,254,0,0,0,0,0,0,0,231.8,766,0,0.000235024,0.000759735,0.00017292,0.0155182,0.000758019,0.000333939,0.000568314,0.000303307,-0.00771873,0.000602569,0.00107849,0.012192,-0.0211218,0.000791588,0.000238457,-0.00775818
36,7,0,0,0,0,0,0,231.8,254,0,0,0,0,0,0,0,231.8,766,0,0.000997963,0.00171341,0.000478096,0.0166244,0.00758633,0.00109688,0.000568314,0.000913658,0.0709022,0.000411835,0.000239258,0.0144809,-0.0206641,0.00113491,0.00145916,-0.00836853
36,8,0,0,0,0,0,0,231.8,254,0,0,0,0,0,0,0,231.8,766,0,0.000769082,-3.20468e-06,0.000897713,0.0164337,0.00689968,0.000791702,0.0013694,0.000341454,0.175959,0.000907745,0.00111664,0.0153964,-0.0207022,0.000639,0.00142101,-0.00768188
36,9,0,0,0,0,0,0,231.8,254,0,0,0,0,0,0,0,231.8,766,0,0.000769082,0.000492706,0.000592537,0.0163192,0.00339016,0.000600967,0.000415726,-0.00049778,0.147883,0.000640716,-0.000104065,0.0130313,-0.0210837,0.000753441,0.00058178,-0.00859741
37,0,0,0,0,0,0,0,231.8,254,0,0,0,0,0,0,0,231.8,766,0,-0.000527916,-0.000270233,0.000325508,0.0162811,0.00255093,0.000257645,0.000339432,0.000799217,0.117251,-0.000847016,0.000162964,0.0149005,-0.0212744,0.000448265,0.000314751,-0.00897888
37,1,0,0,0,0,0,0,231.8,254,0,0,0,0,0,0,0,231.8,766,0,0.000273171,0.000149383,-0.000551872,0.0149078,-0.00126377,-0.000123825,0.000568314,0.000570335,-0.0439202,0.000869598,-0.00128662,0.0173037,-0.0212363,0.000867882,0.000886955,-0.00657562
37,2,0,0,0,0,0,0,231.8,254,0,0,0,0,0,0,0,231.8,766,0,0.000845375,-0.000117646,0.000859566,0.0157089,0.00258907,0.000829849,-4.2038e-05,0.000570335,-0.103544,0.00106033,-0.000561829,0.0217669,-0.0209311,-0.000200233,0.0015736,-0.00840668
37,3,0,0,0,0,0,0,231.8,254,0,0,0,0,0,0,0,231.8,766,0,8.2436e-05,0.000683441,-0.000170403,0.0160904,0.00312313,0.00140205,0.00140755,0.000303307,0.0247443,3.03648e-05,-2.77711e-05,0.022568,-0.0203589,0.000639,0.00107769,-0.00840668
37,4,0,0,0,0,0,0,231.8,254,0,0,0,0,0,0,0,231.8,766,0,0.000235024,0.000378265,0.00120289,0.0153274,0.00140652,0.000639114,0.00060646,0.00026516,-0.0116097,0.0002211,-0.000371094,0.0179522,-0.0210837,0.00105862,0.000658073,-0.00772003
37,5,0,0,0,0,0,0,231.8,254,0,0,0,0,0,0,0,231.8,766,0,-0.000184593,0.00137009,0.000859566,0.0153656,0.00148281,0.00056282,7.24029e-05,0.000722923,-0.0910699,0.00071701,-6.59181e-05,0.00986507,-0.0210455,0.000524559,0.000772514,-0.00760559
37,6,0,0,0,0,0,0,231.8,254,0,0,0,0,0,0,0,231.8,766,0,0.0011887,0.000301971,0.00055439,0.0167389,0.00201687,0.00094429,0.000949783,0.000341454,0.0319923,0.00125107,0.000506287,0.0130313,-0.02013,0.000639,-0.000295601,-0.0081015
37,7,0,0,0,0,0,0,231.8,254,0,0,0,0,0,0,0,231.8,766,0,-7.01519e-05,0.000607147,-0.00100964,0.0151748,-0.00309483,0.00056282,0.000644607,-0.000192604,0.00452644,0.000182953,-0.000790711,0.0108569,-0.0202444,0.000371971,9.57493e-06,-0.00936035
37,8,0,0,0,0,0,0,231.8,254,0,0,0,0,0,0,0,231.8,766,0,0.000387612,-0.00030838,-0.000475578,0.0167389,-0.00351444,0.000715408,0.00133125,0.00076107,-0.0952279,0.000488129,-0.000523682,0.0145953,-0.020397,0.00140194,0.00069622,-0.00848297
37,9,0,0,0,0,0,0,231.8,254,0,0,0,0,0,0,0,231.8,766,0,6.14207e-06,0.00095047,0.000783272,0.0155563,-0.00111118,0.000639114,-0.00065239,7.44248e-05,-0.0398003,0.000755157,-0.000523682,0.0194781,-0.0211981,0.000600853,0.000658073,-0.00775818
38,0,0,0,0,0,0,0,231.8,254,0,0,0,0,0,0,0,231.8,766,0,0.000425759,0.000530853,2.03323e-05,0.0163955,-0.00301853,0.000639114,0.00129311,0.000570335,-0.019201,0.000564422,0.00138367,0.0164645,-0.0214651,0.000295677,0.00164989,-0.00741486
38,1,0,0,0,0,0,0,231.8,254,0,0,0,0,0,0,0,231.8,766,0,0.00107426,0.0012175,0.000859566,0.0162811,-0.00431553,0.000982437,0.00110237,0.000379601,0.0437415,0.00193771,0.00046814,0.0174945,-0.0205878,0.000944176,0.00119213,-0.00756744
38,2,0,0,0,0,0,0,231.8,254,0,0,0,0,0,0,0,231.8,766,0,0.000196877,0.000759735,0.0010503,0.0162811,-0.00278965,0.000372085,0.000377579,0.000608482,-0.0520074,0.000259247,-0.000104065,0.0197833,-0.0218085,-0.000352821,0.00142101,-0.00787262
38,3,0,0,0,0,0,0,231.8,254,0,0,0,0,0,0,0,231.8,766,0,-0.000299034,0.000149383,0.000325508,0.0160904,-0.00191227,0.000715408,0.00121681,-0.000841103,-0.0126778,0.000526275,0.000658874,0.022835,-0.0210837,0.000677147,8.58689e-05,-0.0105429
38,4,0,0,0,0,0,0,231.8,254,0,0,0,0,0,0,0,231.8,766,0,0.000196877,0.000454559,0.000134773,0.0154419,0.000223961,0.000906143,0.000568314,-0.000268898,0.0532401,0.000373688,-0.00109589,0.0213092,-0.02116,0.000371971,0.0010014,-0.00836853
38,5,0,0,0,0,0,0,231.8,254,0,0,0,0,0,0,0,231.8,766,0,-0.000337181,0.000759735,-1.78147e-05,0.0154419,-0.00130192,-0.000505295,0.000797195,-1.86916e-06,-0.0414788,3.03648e-05,0.000277405,0.0176471,-0.0217322,0.000562706,0.000925102,-0.00928406
38,6,0,0,0,0,0,0,231.8,254,0,0,0,0,0,0,0,231.8,766,0,-0.000451622,-0.000422821,0.000478096,0.0146789,-4.30678e-05,-0.000276413,0.00102608,-7.81631e-05,-0.00329369,0.000411835,-0.00105774,0.0168078,-0.0217322,0.000600853,-0.000143013,-0.00882629
38,7,0,0,0,0,0,0,231.8,254,0,0,0,0,0,0,0,231.8,766,0,0.000273171,0.000721588,0.000249214,0.0152893,0.00117764,0.000829849,0.000148697,-0.000459633,0.0748695,0.000564422,-0.0002948,0.0169223,-0.021694,0.000715294,0.0010014,-0.00783447
38,8,0,0,0,0,0,0,231.8,254,0,0,0,0,0,0,0,231.8,766,0,0.000769082,7.30893e-05,-0.000246697,0.0163955,0.0040768,6.69097e-05,0.000720901,-0.000421486,-0.0365197,0.00125107,-0.000561829,0.0163501,-0.0218085,0.000600853,0.00058178,-0.00871185
38,9,0,0,0,0,0,0,231.8,254,0,0,0,0,0,0,0,231.8,766,0,6.14207e-06,0.00129379,0.000745125,0.0156707,0.00594601,0.00166908,0.00011055,0.000951805,0.00300056,0.00132736,8.66698e-05,0.0145953,-0.0202826,0.00109676,0.00119213,-0.00649933
39,0,0,0,0,0,0,0,231.8,254,0,0,0,0,0,0,0,231.8,766,0,0.000349465,0.00129379,0.000859566,0.017044,0.00709042,0.00094429,0.00129311,0.00129513,0.0868858,0.00132736,0.000353699,0.0150531,-0.0209311,0.0018597,-2.8572e-05,-0.00916962
39,1,0,0,0,0,0,0,231.8,254,0,0,0,0,0,0,0,231.8,766,0,0.000807228,0.000721588,0.000821419,0.0162048,0.00457272,0.000753555,0.000453873,0.000150719,-0.0328957,0.00136551,1.03759e-05,0.0144046,-0.0210074,0.00174526,0.00126843,-0.00901703
39,2,0,0,0,0,0,0,231.8,254,0,0,0,0,0,0,0,231.8,766,0,-7.01519e-05,0.00117935,-9.41086e-05,0.0158233,0.000262108,0.00117317,0.000873489,0.000684776,-0.0373589,0.000182953,0.000773315,0.0107043,-0.0210455,0.00117306,0.00111584,-0.00913147
39,3,0,0,0,0,0,0,231.8,254,0,0,0,0,0,0,0,231.8,766,0,0.000769082,0.000340118,-0.00100964,0.0155182,-0.00164524,0.000257645,0.00117867,0.000646629,-0.00607841,0.000526275,-0.000790711,0.0120013,-0.02116,0.000944176,0.000276604,-0.00894073
39,4,0,0,0,0,0,0,231.8,254,0,0,0,0,0,0,0,231.8,766,0,0.000235024,0.000721588,0.000401802,0.0159378,0.00174984,0.00109688,0.000453873,0.00076107,0.0444282,6.85118e-05,1.03759e-05,0.0105136,-0.021694,0.000677147,0.00134472,-0.00871185
39,5,0,0,0,0,0,0,231.8,254,0,0,0,0,0,0,0,231.8,766,0,0.0005402,0.000263824,0.000249214,0.0158615,0.00155911,0.000219498,0.000644607,-0.000574074,0.0289405,0.00132736,0.00058258,0.0105899,-0.0217322,0.000524559,0.00134472,-0.00844482
39,6,0,0,0,0,0,0,231.8,254,0,0,0,0,0,0,0,231.8,766,0,0.000387612,0.000492706,0.000363655,0.0176162,0.00274166,0.00117317,0.00167458,0.000455895,-0.0405251,0.000106659,0.00123108,0.0124972,-0.0203207,0.000677147,0.00058178,-0.00775818
39,7,0,0,0,0,0,0,231.8,254,0,0,0,0,0,0,0,231.8,766,0,0.000387612,0.000721588,0.000897713,0.0160904,0.00121578,0.00166908,0.00129311,0.000951805,0.0567496,0.000907745,0.000391846,0.00872066,-0.0200919,0.00166897,0.00145916,-0.00798706
39,8,0,0,0,0,0,0,231.8,254,0,0,0,0,0,0,0,231.8,766,0,0.00130314,0.00140823,0.00120289,0.0169296,0.00384792,0.000295792,-4.2038e-05,0.000799217,0.0275291,0.00109848,0.000925903,0.00650814,-0.0212744,0.00174526,0.00107769,-0.00829224
39,9,0,0,0,0,0,0,231.8,254,0,0,0,0,0,0,0,231.8,766,0,-0.000337181,0.000759735,0.00055439,0.017044,0.00491604,0.00163094,0.00133125,0.00106625,-0.0364053,0.00106033,0.000811462,0.0122302,-0.0209692,0.00178341,0.00153545,-0.00836853
40,0,0,0,0,0,0,0,231.8,254,0,0,0,0,0,0,0,231.8,766,0,0.000959816,0.000683441,0.00124104,0.017044,0.00442013,0.00121132,0.0019416,0.00076107,0.0672782,-0.000351105,0.000429993,0.0193637,-0.0223044,0.000944176,0.00226025,-0.00768188
40,1,0,0,0,0,0,0,231.8,254,0,0,0,0,0,0,0,231.8,766,0,0.000692788,0.000721588,0.00017292,0.0152893,0.00468716,0.00094429,0.0013694,0.00076107,0.0361121,0.000259247,-0.000447388,0.0147097,-0.0205878,0.00117306,0.000467339,-0.00806335
40,2,0,0,0,0,0,0,231.8,254,0,0,0,0,0,0,0,231.8,766,0,0.000387612,0.000378265,0.000211067,0.0159759,0.00648006,-0.000200119,0.00182716,-1.86916e-06,-0.0407922,0.00163254,-0.000485535,0.0142901,-0.0213126,0.000486412,0.00103954,-0.00844482
40,3,0,0,0,0,0,0,231.8,254,0,0,0,0,0,0,0,231.8,766,0,0.000235024,0.000607147,0.00112659,0.0163955,0.00606045,0.00113502,0.00117867,-0.000421486,0.0702155,0.00136551,0.000697021,0.0126117,-0.0211218,0.000677147,0.00134472,-0.00867371
40,4,0,0,0,0,0,0,231.8,254,0,0,0,0,0,0,0,231.8,766,0,0.000997963,0.000797882,0.000897713,0.0162811,0.00804409,0.00124947,0.00060646,0.00129513,0.0420249,0.00121292,0.000658874,0.0108569,-0.0206259,0.00189785,-0.000791511,-0.00787262
40,5,0,0,0,0,0,0,231.8,254,0,0,0,0,0,0,0,231.8,766,0,0.000502053,0.00133194,9.66262e-05,0.0156326,0.00895962,0.000829849,0.000949783,0.000913658,-0.0587975,0.000907745,0.00115479,0.00971249,-0.0216559,0.000982323,0.000352898,-0.00989441
40,6,0,0,0,0,0,0,231.8,254,0,0,0,0,0,0,0,231.8,766,0,-0.000413475,0.000530853,-1.78147e-05,0.016777,0.00701412,0.000486526,0.000911636,0.000646629,-0.0122201,0.00109848,0.00130737,0.00894955,-0.0209692,0.00174526,0.000658073,-0.00836853
40,7,0,0,0,0,0,0,231.8,254,0,0,0,0,0,0,0,231.8,766,0,0.000387612,0.000340118,0.000287361,0.0159378,0.00438198,0.00102058,0.00060646,-0.000307045,0.00578529,0.000640716,-0.000867005,0.0136035,-0.0210074,0.000906029,0.00149731,-0.00848297
40,8,0,0,0,0,0,0,231.8,254,0,0,0,0,0,0,0,231.8,766,0,0.000616494,-0.000346527,-1.78147e-05,0.0152511,0.00476345,-0.000276413,0.000759048,0.000608482,0.0670875,0.000602569,0.000735168,0.0135653,-0.0210837,0.000448265,0.000848808,-0.0093985
40,9,0,0,0,0,0,0,231.8,254,0,0,0,0,0,0,0,231.8,766,0,0.00015873,0.000912323,0.000897713,0.0165863,0.000376549,0.000639114,0.000911636,-0.00087925,-0.0306451,0.00125107,0.000162964,0.013489,-0.0204733,0.00147823,0.00115398,-0.00958923
41,0,0,0,0,0,0,0,231.8,254,0,0,0,0,0,0,0,231.8,766,0,0.00153202,0.000912323,0.000783272,0.0161285,0.0009869,0.000486526,7.24029e-05,0.000722923,0.00307686,-7.78213e-06,0.00104034,0.0128405,-0.0221899,0.000371971,0.00172619,-0.00779633
41,1,0,0,0,0,0,0,231.8,254,0,0,0,0,0,0,0,231.8,766,0,0.00130314,0.00018753,0.000668831,0.0164337,0.00258907,0.00163094,0.000911636,0.000188866,0.066706,0.00102219,0.00119293,0.0135653,-0.0205115,0.0012875,0.000124016,-0.00875
41,2,0,0,0,0,0,0,231.8,254,0,0,0,0,0,0,0,231.8,766,0,0.000959816,0.00095047,0.00108845,0.0165481,0.00148281,0.00128761,0.00106422,0.00076107,-0.0310647,0.00113663,0.000201111,0.0118487,-0.0208929,0.000982323,0.000658073,-0.00779633
41,3,0,0,0,0,0,0,231.8,254,0,0,0,0,0,0,0,231.8,766,0,0.000578347,0.000454559,-0.000513725,0.0162429,-0.00244633,-0.000429001,0.000301285,0.000494041,0.00555641,0.000564422,-0.000104065,0.0107806,-0.0215796,0.00147823,0.00103954,-0.00977997
41,4,0,0,0,0,0,0,231.8,254,0,0,0,0,0,0,0,231.8,766,0,0.000692788,-0.000422821,0.000478096,0.0163955,0.00133022,0.00147835,0.000644607,0.000684776,0.0817359,-7.78213e-06,0.00107849,0.0252383,-0.0207785,0.00166897,0.00199322,-0.00787262
41,5,0,0,0,0,0,0,231.8,254,0,0,0,0,0,0,0,231.8,766,0,0.000387612,0.00095047,0.00093586,0.0158996,0.0048016,0.000753555,0.00117867,0.000722923,-0.0326287,0.000640716,0.000697021,0.0269931,-0.0215414,0.000371971,0.000429192,-0.00844482
41,6,0,0,0,0,0,0,231.8,254,0,0,0,0,0,0,0,231.8,766,0,8.2436e-05,0.00117935,-0.000284843,0.0164718,0.00365719,-0.000848618,0.000568314,-0.000192604,0.00326759,3.03648e-05,0.000620727,0.0181048,-0.0215033,0.000753441,0.000505486,-0.00966553
41,7,0,0,0,0,0,0,231.8,254,0,0,0,0,0,0,0,231.8,766,0,0.00015873,-0.000499115,0.000668831,0.0158615,0.00144466,2.87627e-05,-4.2038e-05,0.000684776,0.0879157,0.000640716,-6.59181e-05,0.0159686,-0.02116,-4.76455e-05,0.00115398,-0.00848297
41,8,0,0,0,0,0,0,231.8,254,0,0,0,0,0,0,0,231.8,766,0,0.000387612,0.00110306,-0.000132256,0.0160141,0.00300869,0.00056282,0.00117867,0.00125698,-0.0339639,0.000526275,0.00180328,0.0180285,-0.0215796,0.000867882,0.00149731,-0.00951294
41,9,0,0,0,0,0,0,231.8,254,0,0,0,0,0,0,0,231.8,766,0,0.000845375,0.000607147,0.000821419,0.01651,0.0022076,0.000677261,0.00121681,0.000227013,-0.0396096,0.000640716,0.000925903,0.0177996,-0.0204352,0.000829735,0.000543633,-0.00974182
42,0,0,0,0,0,0,0,231.8,254,0,0,0,0,0,0,0,231.8,766,0,0.000730935,0.00129379,0.000630684,0.0164718,0.00171169,0.00117317,0.000873489,-0.00011631,-0.00726097,0.000678863,0.000544433,0.0141757,-0.0202063,0.000562706,0.00164989,-0.00825409
42,1,0,0,0,0,0,0,231.8,254,0,0,0,0,0,0,0,231.8,766,0,0.000997963,-0.000384674,0.000783272,0.0169296,0.00609859,0.000257645,0.000911636,0.000379601,0.0720466,6.85118e-05,0.00218475,0.0149005,-0.0213889,0.00151638,0.00119213,-0.00878815
42,2,0,0,0,0,0,0,231.8,254,0,0,0,0,0,0,0,231.8,766,0,0.000730935,0.000645294,0.00143177,0.0167389,0.00594601,0.00136391,0.000949783,-0.00011631,0.177485,0.00140366,0.000887756,0.0166171,-0.021427,0.000448265,0.00130657,-0.00821594
42,3,0,0,0,0,0,0,231.8,254,0,0,0,0,0,0,0,231.8,766,0,-0.000299034,-0.000384674,0.000745125,0.0158233,0.00304684,0.000524673,0.000148697,-0.000574074,0.147425,-7.78213e-06,0.000811462,0.017113,-0.0207022,0.000600853,0.000314751,-0.00890259
42,4,0,0,0,0,0,0,231.8,254,0,0,0,0,0,0,0,231.8,766,0,-0.000413475,-0.000499115,0.000287361,0.0162048,0.00049099,0.000219498,0.000415726,7.44248e-05,0.111185,0.00117477,-0.000218506,0.0161593,-0.0213507,0.000181236,0.000391045,-0.00802521
42,5,0,0,0,0,0,0,231.8,254,0,0,0,0,0,0,0,231.8,766,0,0.000196877,-0.000346527,5.84793e-05,0.0151367,0.00308498,2.87627e-05,-0.000118332,-0.000764809,-0.0393044,6.85118e-05,-0.000409241,0.0158541,-0.0211218,0.000753441,0.000505486,-0.00836853
42,6,0,0,0,0,0,0,231.8,254,0,0,0,0,0,0,0,231.8,766,0,0.00141758,0.000454559,0.000668831,0.0158996,0.00411495,-0.000238266,0.00114052,0.000608482,-0.104612,0.000488129,0.000391846,0.014786,-0.0224951,0.000333824,0.000543633,-0.0100851
42,7,0,0,0,0,0,0,231.8,254,0,0,0,0,0,0,0,231.8,766,0,0.00107426,-0.000232087,0.00154621,0.0158615,0.00476345,0.000715408,0.000415726,0.000532188,0.0251258,0.000945892,0.00107849,0.0136416,-0.0208167,0.000982323,0.000772514,-0.0075293
42,8,0,0,0,0,0,0,231.8,254,0,0,0,0,0,0,0,231.8,766,0,-3.20049e-05,0.0012175,0.000211067,0.0155563,0.00705227,0.000295792,0.000682754,0.000417748,-0.0128304,0.000488129,0.000925903,0.0185244,-0.021427,0.000600853,-0.000982246,-0.0093222
42,9,0,0,0,0,0,0,231.8,254,0,0,0,0,0,0,0,231.8,766,0,0.00145573,0.00018753,2.03323e-05,0.017044,0.00403866,-9.38424e-06,0.000148697,0.000532188,-0.0929391,0.00106033,-0.000790711,0.0194781,-0.0210455,0.000753441,0.000886955,-0.00863556
43,0,0,0,0,0,0,0,231.8,254,0,0,0,0,0,0,0,231.8,766,0,0.000845375,0.000721588,0.000897713,0.0168914,0.00625118,0.00113502,0.0013694,0.000532188,0.0327934,0.000182953,0.000201111,0.0220721,-0.0206641,0.00102047,4.77219e-05,-0.00848297
43,1,0,0,0,0,0,0,231.8,254,0,0,0,0,0,0,0,231.8,766,0,0.000616494,0.000530853,0.00055439,0.0150985,0.00335201,0.00105873,0.000759048,0.000227013,0.00456459,0.00132736,0.000544433,0.0173419,-0.0221518,0.000600853,0.000276604,-0.00901703
43,2,0,0,0,0,0,0,231.8,254,0,0,0,0,0,0,0,231.8,766,0,0.000654641,-0.000117646,0.000974007,0.0160141,0.00190243,0.000295792,0.000186844,-1.86916e-06,-0.0959145,0.000259247,0.000773315,0.00978878,-0.0205496,0.00105862,0.000314751,-0.00772003
43,3,0,0,0,0,0,0,231.8,254,0,0,0,0,0,0,0,231.8,766,0,0.000654641,0.000721588,0.000668831,0.0162429,0.00476345,-0.000276413,0.00110237,0.00076107,-0.040487,0.000831451,0.00145996,0.0114291,-0.0215796,0.000867882,0.00168804,-0.00749115
43,4,0,0,0,0,0,0,231.8,254,0,0,0,0,0,0,0,231.8,766,0,0.0005402,0.00129379,0.000363655,0.0168151,0.00533566,0.000448379,0.000415726,0.000951805,-0.0190865,0.00212845,0.00130737,0.0146716,-0.0209692,-9.49856e-06,0.000848808,-0.00756744
43,5,0,0,0,0,0,0,231.8,254,0,0,0,0,0,0,0,231.8,766,0,0.000425759,0.00144638,0.000363655,0.0164337,0.00449642,0.00140205,0.000568314,-0.000383339,0.0445808,0.000488129,-0.000447388,0.0164264,-0.0207785,0.00151638,0.00069622,-0.00791077
43,6,0,0,0,0,0,0,231.8,254,0,0,0,0,0,0,0,231.8,766,0,0.0011124,0.000797882,0.0010503,0.0164337,0.00403866,0.000791702,0.000949783,0.000799217,-0.0531899,0.00109848,0.00104034,0.0158923,-0.0216559,0.00201229,0.00123028,-0.00886444
43,7,0,0,0,0,0,0,231.8,254,0,0,0,0,0,0,0,231.8,766,0,0.0011887,0.000569,0.000668831,0.0165481,0.00815853,0.0014402,0.000797195,0.000608482,-0.0104653,0.000449982,0.000544433,0.0149005,-0.0207404,0.000524559,0.000925102,-0.00783447
43,8,0,0,0,0,0,0,231.8,254,0,0,0,0,0,0,0,231.8,766,0,0.00122685,-4.13517e-05,0.00139362,0.0157852,0.00892147,0.00094429,0.000644607,0.000379601,0.0522865,-0.000389252,0.000162964,0.0191729,-0.0210837,0.000104942,0.000772514,-0.00897888
43,9,0,0,0,0,0,0,231.8,254,0,0,0,0,0,0,0,231.8,766,0,0.000235024,0.000797882,0.00108845,0.0150985,0.00518307,0.000448379,0.000797195,0.000150719,-0.0439202,0.000678863,0.00149811,0.0123446,-0.0205496,0.00136379,0.00069622,-0.00981812
44,0,0,0,0,0,0,0,231.8,254,0,0,0,0,0,0,0,231.8,766,0,0.000463906,0.000607147,-5.59617e-05,0.0155182,0.00312313,-4.75312e-05,-0.000118332,0.000608482,-0.000280075,-0.000389252,-0.000752564,0.00986507,-0.022457,-0.00061985,0.00069622,-0.00829224
44,1,0,0,0,0,0,0,231.8,254,0,0,0,0,0,0,0,231.8,766,0,0.000463906,0.000111236,-0.000170403,0.0163955,0.00503048,0.000372085,-0.000576096,0.000570335,0.075022,0.000449982,0.000735168,0.00967434,-0.0213507,-0.000162086,0.000467339,-0.00890259
44,2,0,0,0,0,0,0,231.8,254,0,0,0,0,0,0,0,231.8,766,0,-0.000604209,0.00018753,0.000439949,0.0160522,0.00430569,0.000372085,0.000949783,-4.00161e-05,-0.0371682,0.00071701,0.00126923,0.00975063,-0.0203589,0.000944176,0.000162163,-0.00833038
44,3,0,0,0,0,0,0,231.8,254,0,0,0,0,0,0,0,231.8,766,0,0.0011124,3.49423e-05,0.000325508,0.0168914,0.00506863,0.000867996,0.000949783,0.000913658,0.0026191,0.000106659,0.000811462,0.0141375,-0.0200919,0.00144009,0.00126843,-0.00875
44,4,0,0,0,0,0,0,231.8,254,0,0,0,0,0,0,0,231.8,766,0,0.000997963,0.000683441,0.000668831,0.0168533,0.00564083,0.000333939,-3.89107e-06,0.000799217,0.0869239,0.00125107,0.000239258,0.0126879,-0.0208929,0.0012112,0.00130657,-0.00909332
44,5,0,0,0,0,0,0,231.8,254,0,0,0,0,0,0,0,231.8,766,0,0.000502053,7.30893e-05,-9.41086e-05,0.0160141,0.00373348,0.000257645,-0.00065239,-0.00133701,-0.034269,0.00071701,0.000391846,0.0128405,-0.0217703,0.000295677,-0.00018116,-0.00951294
44,6,0,0,0,0,0,0,231.8,254,0,0,0,0,0,0,0,231.8,766,0,0.00107426,0.000645294,0.000516243,0.0162811,0.00678524,0.000715408,0.00098793,0.000799217,-0.0367867,0.000335541,0.00058258,0.0127642,-0.0206641,0.000448265,0.000772514,-0.00806335
44,7,0,0,0,0,0,0,231.8,254,0,0,0,0,0,0,0,231.8,766,0,0.000502053,-0.000422821,0.000897713,0.01548,0.00571712,0.00102058,0.000720901,7.44248e-05,-0.00535362,0.000411835,0.000201111,0.0127642,-0.0206259,0.000753441,-2.8572e-05,-0.00798706
44,8,0,0,0,0,0,0,231.8,254,0,0,0,0,0,0,0,231.8,766,0,0.000273171,0.000912323,0.000249214,0.0163955,0.00720486,-9.38424e-06,0.00049202,3.62778e-05,0.046984,0.00132736,0.00104034,0.0157016,-0.0209692,6.67954e-05,0.00184063,-0.00783447
44,9,0,0,0,0,0,0,231.8,254,0,0,0,0,0,0,0,231.8,766,0,0.000692788,0.00018753,-0.000170403,0.0154037,0.00403866,0.000677261,0.000720901,0.000494041,0.0285972,-0.000274811,-0.000104065,0.0142901,-0.0223425,0.000562706,0.00149731,-0.00867371
45,0,0,0,0,0,0,0,231.8,254,0,0,0,0,0,0,0,231.8,766,0,0.00160831,0.00117935,0.00101215,0.0165481,0.00258907,0.000486526,0.00144569,0.00076107,-0.041021,0.00109848,0.000315552,0.0163119,-0.0194434,0.00144009,0.00111584,-0.00669006
45,1,0,0,0,0,0,0,231.8,254,0,0,0,0,0,0,0,231.8,766,0,0.000425759,0.000454559,0.00135548,0.0166626,0.0040768,0.00121132,0.000224991,0.000532188,0.0566734,0.000755157,0.000620727,0.0126879,-0.0211981,0.00166897,0.00203136,-0.00871185
45,2,0,0,0,0,0,0,231.8,254,0,0,0,0,0,0,0,231.8,766,0,-0.000299034,0.000225677,0.000974007,0.0164337,0.00522121,2.87627e-05,0.00011055,0.000608482,0.0266135,0.00170883,0.000201111,0.0124591,-0.0216559,0.000600853,-0.00189777,-0.00756744
45,3,0,0,0,0,0,0,231.8,254,0,0,0,0,0,0,0,231.8,766,0,-0.000146446,-0.000155793,0.00055439,0.0158615,0.00430569,0.000639114,-0.000423508,-0.000192604,-0.0393426,3.03648e-05,0.00046814,0.0149768,-0.0213126,0.000677147,0.00103954,-0.00936035
45,4,0,0,0,0,0,0,231.8,254,0,0,0,0,0,0,0,231.8,766,0,0.00015873,0.00018753,0.000134773,0.0158615,0.00655636,-9.38424e-06,0.00114052,0.000913658,0.0677741,6.85118e-05,-6.59181e-05,0.0118106,-0.0208548,0.000104942,-0.000143013,-0.0093222
45,5,0,0,0,0,0,0,231.8,254,0,0,0,0,0,0,0,231.8,766,0,0.00015873,7.30893e-05,5.84793e-05,0.015213,0.00934109,0.000486526,-0.000385361,0.000188866,0.0363029,0.000640716,-0.00170624,0.0152438,-0.0213126,0.000143089,4.77219e-05,-0.00798706
45,6,0,0,0,0,0,0,231.8,254,0,0,0,0,0,0,0,231.8,766,0,0.0005402,0.000492706,-0.000284843,0.0154037,0.00838741,0.000410232,0.000263138,0.000913658,-0.0429284,0.000182953,0.00058258,0.0133746,-0.0228003,0.000944176,0.00191692,-0.00890259
45,7,0,0,0,0,0,0,231.8,254,0,0,0,0,0,0,0,231.8,766,0,0.00153202,0.000225677,0.00173695,0.0164718,0.00865444,0.00128761,0.00148384,0.000799217,0.0715888,0.00128921,0.000773315,0.0115435,-0.0206641,0.00102047,0.000848808,-0.00749115
45,8,0,0,0,0,0,0,231.8,254,0,0,0,0,0,0,0,231.8,766,0,0.00015873,0.000416412,2.03323e-05,0.0148315,0.00926479,0.000677261,-0.000957565,0.000150719,0.0422919,0.000373688,-6.59181e-05,0.0134509,-0.0220755,-4.76455e-05,0.00069622,-0.00894073
45,9,0,0,0,0,0,0,231.8,254,0,0,0,0,0,0,0,231.8,766,0,8.2436e-05,0.000759735,-0.000399284,0.0163192,0.012164,0.00056282,0.00049202,0.000150719,-0.0599419,0.00155624,0.00115479,0.0124591,-0.0215414,0.000944176,-0.000600777,-0.00783447
46,0,0,0,0,0,0,0,231.8,254,0,0,0,0,0,0,0,231.8,766,0,0.000120583,7.30893e-05,0.000592537,0.0170059,0.0131558,0.00109688,0.000797195,0.000722923,-0.0115334,0.000373688,0.000697021,0.0143664,-0.0206641,0.0012875,0.00145916,-0.00791077
46,1,0,0,0,0,0,0,231.8,254,0,0,0,0,0,0,0,231.8,766,0,0.000387612,0.000836029,-0.00032299,0.0151367,0.00865444,0.000524673,0.000682754,0.00110439,0.0157035,-0.000389252,0.000429993,0.01738,-0.0208167,0.000944176,0.00134472,-0.00707153
46,2,0,0,0,0,0,0,231.8,254,0,0,0,0,0,0,0,231.8,766,0,0.000387612,0.00095047,0.000668831,0.0153274,0.00766262,0.000410232,7.24029e-05,0.000532188,0.145289,0.000640716,-0.000599976,0.0170749,-0.0200919,0.000639,-0.000257454,-0.00848297
46,3,0,0,0,0,0,0,231.8,254,0,0,0,0,0,0,0,231.8,766,0,-0.00022274,0.000340118,0.000363655,0.0158615,0.00705227,0.000677261,0.00011055,0.000455895,0.169474,0.000602569,-0.000104065,0.0188678,-0.0210455,0.000982323,0.000886955,-0.0075293
46,4,0,0,0,0,0,0,231.8,254,0,0,0,0,0,0,0,231.8,766,0,0.000807228,-0.000117646,-0.000399284,0.0147934,0.00419125,6.69097e-05,0.000644607,0.000188866,0.13743,0.000984039,-0.000981445,0.0203936,-0.0217322,0.000562706,-6.6719e-05,-0.00821594
46,5,0,0,0,0,0,0,231.8,254,0,0,0,0,0,0,0,231.8,766,0,0.000349465,0.000111236,0.000478096,0.0154037,0.00392422,-0.000581589,-4.2038e-05,-0.000230751,0.0544227,0.00071701,0.000201111,0.0198596,-0.0214651,2.86484e-05,0.000352898,-0.00875
46,6,0,0,0,0,0,0,231.8,254,0,0,0,0,0,0,0,231.8,766,0,-7.01519e-05,0.000912323,0.000668831,0.0156707,0.0028561,0.000448379,0.000148697,-0.000307045,-0.106062,0.000564422,1.03759e-05,0.0146334,-0.0218466,0.000753441,0.00069622,-0.00890259
46,7,0,0,0,0,0,0,231.8,254,0,0,0,0,0,0,0,231.8,766,0,0.000349465,-0.000422821,0.000592537,0.0152893,-0.00137821,0.000410232,0.000377579,-0.000230751,-0.0405633,0.000411835,-0.00101959,0.0126498,-0.0214651,0.000524559,0.00107769,-0.00871185
46,8,0,0,0,0,0,0,231.8,254,0,0,0,0,0,0,0,231.8,766,0,-0.000604209,0.000836029,-0.00070446,0.0150985,0.00148281,0.000829849,-0.00027092,0.000837364,0.0429023,0.000259247,0.000124817,0.0094836,-0.0204352,0.00109676,0.000314751,-0.00756744
46,9,0,0,0,0,0,0,231.8,254,0,0,0,0,0,0,0,231.8,766,0,0.000959816,0.000340118,5.84793e-05,0.0155182,-4.30678e-05,6.69097e-05,0.00098793,0.000608482,-0.0797402,0.000373688,-0.000638123,0.00830105,-0.0215033,-4.76455e-05,0.00126843,-0.00852112
47,0,0,0,0,0,0,0,231.8,254,0,0,0,0,0,0,0,231.8,766,0,0.00126499,0.000759735,0.000897713,0.0167007,-0.00137821,0.00140205,0.000720901,0.000150719,-0.0336205,0.00109848,0.000773315,0.0136035,-0.0197104,0.00166897,0.000734367,-0.00733856
47,1,0,0,0,0,0,0,231.8,254,0,0,0,0,0,0,0,231.8,766,0,0.00107426,0.000912323,0.00101215,0.0161285,-0.000806007,-4.75312e-05,0.000568314,-4.00161e-05,0.0566734,0.000984039,0.000162964,0.0203936,-0.0213507,0.0012112,0.00184063,-0.00913147
47,2,0,0,0,0,0,0,231.8,254,0,0,0,0,0,0,0,231.8,766,0,-0.00022274,7.30893e-05,-0.000590019,0.0153656,-0.00587955,0.000600967,-0.000461655,0.000532188,-0.0678765,0.00170883,-0.000180359,0.0229876,-0.0213507,-0.000543556,-0.000333748,-0.00756744
47,3,0,0,0,0,0,0,231.8,254,0,0,0,0,0,0,0,231.8,766,0,0.000120583,0.0017897,0.00131733,0.0166244,-0.00793949,0.000982437,0.000301285,-0.000574074,-0.0673806,0.00224289,0.00058258,0.0244754,-0.0200537,0.000410118,0.000429192,-0.00836853
47,4,0,0,0,0,0,0,231.8,254,0,0,0,0,0,0,0,231.8,766,0,0.000578347,0.000797882,0.0010503,0.0165863,-0.00496403,0.00117317,0.00098793,0.00076107,-0.0332772,0.000182953,1.03759e-05,0.0223391,-0.0203589,0.00182156,0.00191692,-0.00791077
47,5,0,0,0,0,0,0,231.8,254,0,0,0,0,0,0,0,231.8,766,0,0.000883522,0.00095047,0.000325508,0.0169296,-0.00736729,0.00163094,0.0013694,0.000532188,0.0227607,0.000259247,0.000391846,0.0177615,-0.0212363,0.00182156,0.00176434,-0.0081778
47,6,0,0,0,0,0,0,231.8,254,0,0,0,0,0,0,0,231.8,766,0,0.000692788,0.00163712,0.000859566,0.0161285,-0.00576511,0.00159279,0.00049202,0.000913658,0.00712044,0.00121292,-0.000599976,0.0123446,-0.0202444,0.00102047,0.000658073,-0.00669006
47,7,0,0,0,0,0,0,231.8,254,0,0,0,0,0,0,0,231.8,766,0,0.0005402,-0.000384674,0.000859566,0.0158996,-0.00595585,0.000410232,0.00102608,-0.00114628,-0.0594842,-0.000274811,0.000735168,0.0118106,-0.02116,0.00124935,0.000429192,-0.00806335
47,8,0,0,0,0,0,0,231.8,254,0,0,0,0,0,0,0,231.8,766,0,6.14207e-06,0.000416412,-0.00020855,0.0142974,-0.00614658,-4.75312e-05,0.000873489,0.000150719,0.0426734,0.00106033,-0.000447388,0.0145953,-0.0206259,0.000524559,-0.000104866,-0.00657562
47,9,0,0,0,0,0,0,231.8,254,0,0,0,0,0,0,0,231.8,766,0,-0.000108299,0.000416412,0.000211067,0.0161285,-0.000844154,6.69097e-05,-0.000461655,0.000379601,0.012728,0.000335541,0.000925903,0.0132983,-0.0206641,-0.000581703,0.000925102,-0.00897888
48,0,0,0,0,0,0,0,231.8,254,0,0,0,0,0,0,0,231.8,766,0,-0.00022274,0.00140823,0.000325508,0.0162811,-0.000538978,0.0014402,0.000263138,0.000150719,-0.0497186,0.00106033,0.000773315,0.0103228,-0.0210455,0.000448265,0.000467339,-0.00844482
48,1,0,0,0,0,0,0,231.8,254,0,0,0,0,0,0,0,231.8,766,0,0.000311318,0.0011412,0.00139362,0.0161285,0.00308498,0.00163094,0.00098793,0.000379601,0.0578178,0.000297394,-0.000104065,0.00929287,-0.0187567,0.00208858,0.000886955,-0.00825409
48,2,0,0,0,0,0,0,231.8,254,0,0,0,0,0,0,0,231.8,766,0,0.000692788,0.00156082,0.000287361,0.0165481,0.00152096,0.0014402,0.00098793,0.000341454,0.0279487,0.000373688,0.000124817,0.0121539,-0.0202826,0.00109676,0.000848808,-0.00867371
48,3,0,0,0,0,0,0,231.8,254,0,0,0,0,0,0,0,231.8,766,0,0.000654641,0.000797882,5.84793e-05,0.0162048,-0.00118748,0.000829849,0.000835342,0.000341454,-0.0480401,0.000526275,0.000201111,0.0143664,-0.0206259,0.0012875,0.00115398,-0.00840668
48,4,0,0,0,0,0,0,231.8,254,0,0,0,0,0,0,0,231.8,766,0,0.000425759,0.000111236,-0.000399284,0.0152893,0.000567284,0.000219498,-0.000919418,0.000684776,0.0650657,0.000144806,-0.000638123,0.0135653,-0.0210837,0.000753441,-0.000905952,-0.00958923
48,5,0,0,0,0,0,0,231.8,254,0,0,0,0,0,0,0,231.8,766,0,0.000921669,0.000454559,0.000249214,0.0160522,0.00361904,0.00056282,0.0020179,0.00076107,0.038668,-0.000312958,-6.59181e-05,0.0126879,-0.0206641,0.00151638,0.000124016,-0.00768188
48,6,0,0,0,0,0,0,231.8,254,0,0,0,0,0,0,0,231.8,766,0,0.0005402,0.000416412,0.00135548,0.0164337,0.00705227,0.000982437,0.000301285,0.000646629,-0.0603997,-7.78213e-06,0.00058258,0.0144427,-0.0216177,0.000944176,0.00107769,-0.007453
48,7,0,0,0,0,0,0,231.8,254,0,0,0,0,0,0,0,231.8,766,0,0.000425759,-0.000384674,0.000249214,0.0169677,0.00751003,0.000791702,0.000682754,-0.000192604,-0.0119912,0.000373688,0.00104034,0.0124209,-0.0210455,0.000829735,0.000543633,-0.00890259
48,8,0,0,0,0,0,0,231.8,254,0,0,0,0,0,0,0,231.8,766,0,0.0011124,0.00106491,0.000478096,0.0159759,0.0079678,0.00178352,0.00098793,0.000608482,0.00750191,0.00147995,-0.000485535,0.0128405,-0.0199011,0.00136379,-0.000448189,-0.00718597
48,9,0,0,0,0,0,0,231.8,254,0,0,0,0,0,0,0,231.8,766,0,0.000273171,0.000759735,0.000745125,0.0158615,0.00503048,0.000105057,0.000453873,0.000684776,0.0677741,-0.000198517,0.000391846,0.00921657,-0.0216559,0.000600853,0.00126843,-0.00871185
49,0,0,0,0,0,0,0,231.8,254,0,0,0,0,0,0,0,231.8,766,0,0.000883522,3.49423e-05,0.00131733,0.0166626,0.00262722,0.000791702,0.00125496,0.000227013,-0.0300347,0.000869598,0.000239258,0.00963619,-0.02013,0.001936,0.00168804,-0.00840668
49,1,0,0,0,0,0,0,231.8,254,0,0,0,0,0,0,0,231.8,766,0,0.000845375,0.000607147,-0.000933342,0.0160141,0.00411495,0.000410232,0.000263138,0.000112572,0.00326759,-0.000885163,0.000239258,0.00822475,-0.0217322,2.86484e-05,0.000658073,-0.00943665
49,2,0,0,0,0,0,0,231.8,254,0,0,0,0,0,0,0,231.8,766,0,0.000196877,0.000149383,0.000478096,0.0157089,0.00113949,2.87627e-05,0.000873489,-0.00049778,0.0679649,0.000144806,0.000658874,0.00872066,-0.0211981,0.000410118,0.00111584,-0.00924591
49,3,0,0,0,0,0,0,231.8,254,0,0,0,0,0,0,0,231.8,766,0,0.000425759,0.000416412,0.000325508,0.0160522,-0.000195656,0.000295792,-0.000385361,0.000112572,-0.0291573,0.00147995,0.000506287,0.0133364,-0.0199011,0.00124935,-0.000448189,-0.00901703
49,4,0,0,0,0,0,0,231.8,254,0,0,0,0,0,0,0,231.8,766,0,-0.000108299,0.000454559,-0.000742607,0.0154037,0.000910606,6.69097e-05,0.000568314,-0.000154457,0.00795967,0.000488129,-0.000409241,0.0141757,-0.0211981,2.86484e-05,0.00020031,-0.00905518
49,5,0,0,0,0,0,0,231.8,254,0,0,0,0,0,0,0,231.8,766,0,0.000883522,-0.000918732,0.00055439,0.0158615,0.00167355,0.00155464,0.00144569,-4.00161e-05,0.0831474,0.000106659,8.66698e-05,0.0193637,-0.0215033,0.000715294,0.0010014,-0.00840668
49,6,0,0,0,0,0,0,231.8,254,0,0,0,0,0,0,0,231.8,766,0,0.000196877,7.30893e-05,0.000287361,0.0150222,0.00247463,0.000410232,0.000377579,-0.000307045,-0.0298821,0.000335541,0.000162964,0.0136798,-0.0206641,0.00147823,4.77219e-05,-0.00905518
49,7,0,0,0,0,0,0,231.8,254,0,0,0,0,0,0,0,231.8,766,0,0.00137943,0.000569,0.000325508,0.0166626,0.00476345,0.00056282,0.00163643,0.000494041,0.00715858,0.000755157,0.000429993,0.00753811,-0.0212744,0.00105862,0.00138287,-0.00947479
49,8,0,0,0,0,0,0,231.8,254,0,0,0,0,0,0,0,231.8,766,0,-7.01519e-05,0.000149383,-0.000284843,0.0158233,0.00617489,0.000448379,0.000911636,-0.000383339,0.0897086,0.00102219,0.000201111,0.00799587,-0.0209311,0.000486412,8.58689e-05,-0.00772003
49,9,0,0,0,0,0,0,231.8,254,0,0,0,0,0,0,0,231.8,766,0,-3.20049e-05,0.000378265,-1.78147e-05,0.0158233,0.00548824,0.000295792,0.000186844,0.000379601,-0.0312173,6.85118e-05,0.0010022,0.0155108,-0.0213507,0.000333824,0.00069622,-0.0093985
50,0,0,0,0,0,0,0,231.8,254,0,0,0,0,0,0,0,231.8,766,0,0.000311318,0.000607147,0.00173695,0.0168914,0.00567898,-0.000123825,0.000644607,0.000112572,-0.0357568,0.00109848,0.00130737,0.0187533,-0.0204352,0.00025753,0.000543633,-0.00829224
50,1,0,0,0,0,0,0,231.8,254,0,0,0,0,0,0,0,231.8,766,0,-0.000756797,0.000492706,0.000668831,0.0163192,0.00659451,0.000677261,0.000644607,-0.00164219,-0.00417107,0.00117477,0.000620727,0.0169223,-0.0208167,0.000944176,0.00069622,-0.00867371
50,2,0,0,0,0,0,0,231.8,254,0,0,0,0,0,0,0,231.8,766,0,0.000959816,-0.000651703,0.000249214,0.0167007,0.00873074,0.000677261,0.000835342,-0.000154457,0.0730003,-0.000808869,0.000277405,0.0148623,-0.0212363,0.00113491,0.000848808,-0.00966553
50,3,0,0,0,0,0,0,231.8,254,0,0,0,0,0,0,0,231.8,766,0,0.000387612,0.000492706,0.000211067,0.0162811,0.0107144,0.000677261,0.00106422,0.000112572,0.178248,-0.000274811,0.000620727,0.013222,-0.021694,0.000944176,0.000848808,-0.00836853
50,4,0,0,0,0,0,0,231.8,254,0,0,0,0,0,0,0,231.8,766,0,0.0005402,0.000797882,0.000249214,0.0149841,0.0143002,0.000639114,0.000835342,0.00190548,0.152079,0.000869598,-0.000218506,0.0170367,-0.0204733,0.00132565,0.00199322,-0.00905518
50,5,0,0,0,0,0,0,231.8,254,0,0,0,0,0,0,0,231.8,766,0,6.14207e-06,0.000797882,0.0016988,0.0169296,0.0155972,0.000791702,0.00129311,0.000494041,0.121294,0.00220474,0.00058258,0.0155108,-0.0200156,0.00136379,0.00058178,-0.00863556
50,6,0,0,0,0,0,0,231.8,254,0,0,0,0,0,0,0,231.8,766,0,0.000578347,0.00102676,0.000974007,0.0166626,0.0174664,0.00094429,0.00167458,0.00026516,-0.0415551,0.000831451,-6.59181e-05,0.015816,-0.0212363,0.00159267,0.00176434,-0.00859741
50,7,0,0,0,0,0,0,231.8,254,0,0,0,0,0,0,0,231.8,766,0,-0.000184593,0.000263824,0.000134773,0.0164718,0.0141095,0.00109688,0.000720901,0.000341454,-0.10137,0.00197586,0.00119293,0.0156634,-0.0206641,0.000371971,0.000734367,-0.0102759
50,8,0,0,0,0,0,0,231.8,254,0,0,0,0,0,0,0,231.8,766,0,-0.000527916,0.000225677,0.000592537,0.0162048,0.0131939,0.000295792,0.00060646,-0.000841103,0.0261939,-0.000389252,0.000391846,0.0148623,-0.0220374,0.000715294,-0.000677071,-0.00901703
50,9,0,0,0,0,0,0,231.8,254,0,0,0,0,0,0,0,231.8,766,0,0.000273171,0.000378265,0.000821419,0.0161285,0.0154446,0.000372085,0.00060646,0.000722923,-0.0114953,0.00113663,0.00126923,0.0163119,-0.0210455,0.000867882,0.000886955,-0.00924591
51,0,0,0,0,0,0,0,231.8,254,0,0,0,0,0,0,0,231.8,766,0,-0.000604209,0.000797882,0.000859566,0.017044,0.0123166,0.00102058,0.00144569,-0.00011631,-0.0907647,0.00109848,0.000506287,0.0191729,-0.0211218,0.000906029,0.000619926,-0.00844482
51,1,0,0,0,0,0,0,231.8,254,0,0,0,0,0,0,0,231.8,766,0,0.000959816,0.000340118,0.000401802,0.0160904,0.00735744,0.000715408,0.00148384,0.00026516,0.0338996,0.000488129,-6.59181e-05,0.018677,-0.0206641,0.000944176,0.00134472,-0.0081778
51,2,0,0,0,0,0,0,231.8,254,0,0,0,0,0,0,0,231.8,766,0,0.00122685,0.00018753,0.000974007,0.0164337,0.00461086,0.000372085,0.00121681,0.000455895,0.00647194,0.000640716,0.00168884,0.0163882,-0.0203207,0.00136379,0.00195507,-0.00894073
51,3,0,0,0,0,0,0,231.8,254,0,0,0,0,0,0,0,231.8,766,0,0.000196877,-0.000117646,0.000439949,0.0160522,0.0041531,0.000295792,0.00106422,0.000150719,-0.093969,0.00109848,0.000849609,0.0161975,-0.0216559,6.67954e-05,0.000925102,-0.00928406
51,4,0,0,0,0,0,0,231.8,254,0,0,0,0,0,0,0,231.8,766,0,0.00115055,0.0012175,0.000630684,0.0167007,0.00281796,0.00174538,0.00117867,0.000303307,-0.0398766,-0.000351105,0.000391846,0.0162738,-0.0207022,0.00147823,0.000810661,-0.00787262
51,5,0,0,0,0,0,0,231.8,254,0,0,0,0,0,0,0,231.8,766,0,0.000692788,0.000759735,-0.00020855,0.0158996,0.00579342,0.000448379,-0.000347214,0.000494041,-0.0174462,0.00117477,0.000620727,0.0174945,-0.0205496,0.00102047,8.58689e-05,-0.0081778
51,6,0,0,0,0,0,0,231.8,254,0,0,0,0,0,0,0,231.8,766,0,0.000235024,7.30893e-05,0.00055439,0.0164718,0.00865444,0.000372085,0.000301285,0.000646629,0.0431312,-8.40761e-05,-2.77711e-05,0.0203936,-0.0215414,0.00109676,0.000391045,-0.00951294
