Devices
1000
,,North - Force,,,North - Moment,,,North - CoP,,,South - Force,,,South - Moment,,,South - CoP,,,EMG - Voltage,,,,,,,,,,,,,,,,
Frame,Sub Frame,Fx,Fy,Fz,Mx,My,Mz,Cx,Cy,Cz,Fx,Fy,Fz,Mx,My,Mz,Cx,Cy,Cz,1,2,3,TA,5,Sol,7,8,VL,RF,BF,GlutMed,GlutMax,14,MedGast,16
,,N,N,N,N.mm,N.mm,N.mm,mm,mm,mm,N,N,N,N.mm,N.mm,N.mm,mm,mm,mm,V,V,V,V,V,V,V,V,V,V,V,V,V,V,V,V
1,0,0,0,0,0,0,0,231.8,254,0,0,0,0,0,0,0,231.8,766,0,0.000692788,0.000454559,0.000745125,0.0162429,-0.0103046,0.000982437,-4.2038e-05,-0.000268898,-0.0480019,0.000297394,0.000506287,0.011925,-0.0218085,0.000410118,9.57493e-06,-0.00985626
1,1,0,0,0,0,0,0,231.8,254,0,0,0,0,0,0,0,231.8,766,0,0.00015873,0.000263824,0.000668831,0.0163192,-0.00504032,-0.000505295,0.000835342,-0.00011631,-0.0112664,-4.59291e-05,0.000735168,0.012955,-0.02116,0.000295677,0.00107769,-0.0100089
1,2,0,0,0,0,0,0,231.8,254,0,0,0,0,0,0,0,231.8,766,0,0.00107426,-0.000155793,0.000897713,0.0165481,-0.00427738,0.000219498,0.00121681,-0.000764809,0.0734199,0.00125107,0.00123108,0.0114291,-0.0204352,0.000600853,0.000772514,-0.00836853
1,3,0,0,0,0,0,0,231.8,254,0,0,0,0,0,0,0,231.8,766,0,-0.000108299,-0.00030838,0.000974007,0.0162048,-0.00195042,0.00132576,0.0013694,0.000341454,0.0161613,3.03648e-05,0.00161255,0.0107425,-0.0200919,0.00159267,0.00111584,-0.00802521
1,4,0,0,0,0,0,0,231.8,254,0,0,0,0,0,0,0,231.8,766,0,0.000311318,0.000263824,0.000363655,0.0158233,-0.00874058,0.000829849,0.00114052,0.000722923,-0.0575768,0.000373688,0.000162964,0.00929287,-0.0219992,0.000791588,0.000276604,-0.00924591
1,5,0,0,0,0,0,0,231.8,254,0,0,0,0,0,0,0,231.8,766,0,-0.000108299,-0.00019394,0.000630684,0.0162048,-0.00900761,-0.000505295,0.00011055,-0.000268898,0.0883735,-0.000656281,-2.77711e-05,0.0138705,-0.0218085,-0.000352821,0.00145916,-0.00833038
1,6,0,0,0,0,0,0,231.8,254,0,0,0,0,0,0,0,231.8,766,0,0.000425759,0.000721588,9.66262e-05,0.0146408,-0.00595585,0.000410232,7.24029e-05,-0.000268898,0.0138343,3.03648e-05,0.000429993,0.0147479,-0.0219611,0.000829735,0.00252728,-0.010314
1,7,0,0,0,0,0,0,231.8,254,0,0,0,0,0,0,0,231.8,766,0,0.000730935,0.000759735,0.000630684,0.0160904,-0.00496403,0.000219498,0.00117867,-0.000154457,-0.0551354,0.00128921,0.00161255,0.0137179,-0.0215414,0.00025753,0.000925102,-0.00844482
1,8,0,0,0,0,0,0,231.8,254,0,0,0,0,0,0,0,231.8,766,0,0.000654641,0.000912323,0.00158436,0.0167389,-0.00351444,0.000982437,0.00159828,0.000646629,0.0989783,0.00102219,0.000849609,0.0151675,-0.0205115,0.000486412,0.00138287,-0.00829224
1,9,0,0,0,0,0,0,231.8,254,0,0,0,0,0,0,0,231.8,766,0,0.0005402,0.000645294,0.000592537,0.0164718,-0.00416294,0.00109688,0.000873489,0.000608482,0.0232185,3.03648e-05,0.00046814,0.00975063,-0.0207785,0.000677147,0.00153545,-0.00813965
2,0,0,0,0,0,0,0,231.8,254,0,0,0,0,0,0,0,231.8,766,0,0.00126499,-0.000117646,0.000516243,0.0162048,-0.00416294,0.000410232,-3.89107e-06,-7.81631e-05,-0.0579202,0.000793304,0.00126923,0.00967434,-0.0207785,0.000219383,0.000276604,-0.00833038
2,1,0,0,0,0,0,0,231.8,254,0,0,0,0,0,0,0,231.8,766,0,0.000273171,-0.000537262,0.00017292,0.0151367,-0.00298038,-0.000390854,0.00102608,0.000989952,0.100313,-0.00054184,0.000201111,0.0115435,-0.0220374,0.000181236,0.00130657,-0.00855927
2,2,0,0,0,0,0,0,231.8,254,0,0,0,0,0,0,0,231.8,766,0,0.00126499,0.00102676,0.0010503,0.0165863,-0.000119362,0.000372085,3.42559e-05,0.000303307,0.0312675,-8.40761e-05,0.000697021,0.0131457,-0.0207785,0.000982323,0.000467339,-0.00852112
2,3,0,0,0,0,0,0,231.8,254,0,0,0,0,0,0,0,231.8,766,0,0.000235024,7.30893e-05,0.000897713,0.0164718,0.00205502,0.000448379,0.000759048,0.000608482,-0.0868356,0.000945892,0.000697021,0.0113147,-0.0219611,0.00105862,0.000848808,-0.00951294
2,4,0,0,0,0,0,0,231.8,254,0,0,0,0,0,0,0,231.8,766,0,0.000997963,-4.13517e-05,-0.00032299,0.0155563,-0.00160709,0.00102058,0.0013694,0.000875511,-0.0182092,-0.000694428,0.000849609,0.0138324,-0.0221136,0.000944176,0.00145916,-0.00875
2,5,0,0,0,0,0,0,231.8,254,0,0,0,0,0,0,0,231.8,766,0,0.00103611,0.00106491,0.00124104,0.0150222,-0.0072147,0.000448379,0.00098793,0.000112572,0.0159324,0.00147995,0.000773315,0.0140994,-0.0215414,0.000982323,0.00206951,-0.00791077
2,6,0,0,0,0,0,0,231.8,254,0,0,0,0,0,0,0,231.8,766,0,0.000387612,0.00018753,-0.000132256,0.0155944,-0.00507847,0.000600967,0.000186844,0.000532188,0.086695,-0.000770722,0.000544433,0.0155871,-0.0216559,0.000639,0.000886955,-0.0081778
2,7,0,0,0,0,0,0,231.8,254,0,0,0,0,0,0,0,231.8,766,0,0.000120583,-0.00019394,0.000439949,0.0158996,-0.00366703,-8.56782e-05,0.000530167,0.000494041,-0.0632226,0.000869598,1.03759e-05,0.0138324,-0.0222662,0.000906029,0.000391045,-0.00920776
2,8,0,0,0,0,0,0,231.8,254,0,0,0,0,0,0,0,231.8,766,0,0.00115055,0.000721588,0.000478096,0.0157852,-0.00214115,0.000753555,0.000415726,-4.00161e-05,0.0191749,0.0014418,0.000620727,0.0115435,-0.0211981,0.000677147,0.0010014,-0.00798706
2,9,0,0,0,0,0,0,231.8,254,0,0,0,0,0,0,0,231.8,766,0,0.0011124,0.0011412,0.00093586,0.0162429,0.00243649,-0.000276413,0.000949783,0.00121883,0.0868095,0.000526275,0.0010022,0.0137561,-0.0208167,0.00109676,0.000658073,-0.00699524
3,0,0,0,0,0,0,0,231.8,254,0,0,0,0,0,0,0,231.8,766,0,0.00153202,0.000988617,0.00120289,0.0173492,0.00277981,0.000906143,0.00098793,0.000227013,-0.0583016,0.00163254,0.00130737,0.0165408,-0.0207404,0.00163082,0.000391045,-0.00886444
3,1,0,0,0,0,0,0,231.8,254,0,0,0,0,0,0,0,231.8,766,0,0.0005402,0.00159897,0.000897713,0.016777,0.00426754,0.00140205,0.000720901,0.000989952,0.0208152,0.000831451,-0.000409241,0.0184481,-0.0216559,0.000639,0.00123028,-0.00848297
3,2,0,0,0,0,0,0,231.8,254,0,0,0,0,0,0,0,231.8,766,0,0.000807228,0.000569,0.000745125,0.0165481,0.00453457,0.00056282,0.000644607,0.00121883,0.103976,0.000449982,0.00138367,0.0183718,-0.0210074,0.00178341,0.00172619,-0.00958923
3,3,0,0,0,0,0,0,231.8,254,0,0,0,0,0,0,0,231.8,766,0,0.000425759,-0.000117646,0.00116474,0.0161285,0.00579342,0.00117317,0.00106422,0.00076107,-0.0595605,0.000259247,0.000162964,0.014252,-0.021427,0.00159267,0.000429192,-0.00779633
3,4,0,0,0,0,0,0,231.8,254,0,0,0,0,0,0,0,231.8,766,0,0.000502053,0.000530853,0.000745125,0.0152893,0.00483974,-9.38424e-06,0.000415726,-1.86916e-06,0.0201667,-7.78213e-06,0.00107849,0.0161212,-0.0210074,0.00144009,0.000619926,-0.0093985
3,5,0,0,0,0,0,0,231.8,254,0,0,0,0,0,0,0,231.8,766,0,0.000769082,-0.000346527,-0.000437431,0.0155563,0.00831112,-9.38424e-06,-0.000614243,0.000227013,0.109049,-0.00054184,-0.000332947,0.0144046,-0.0221136,0.000448265,-0.000448189,-0.0093222
3,6,0,0,0,0,0,0,231.8,254,0,0,0,0,0,0,0,231.8,766,0,0.000235024,0.000492706,-0.000399284,0.0152511,0.0103329,0.000791702,-0.000232773,0.000608482,-0.0627267,0.000411835,-0.000561829,0.011925,-0.0219611,0.000639,0.00111584,-0.00794891
3,7,0,0,0,0,0,0,231.8,254,0,0,0,0,0,0,0,231.8,766,0,0.000578347,0.00171341,0.00055439,0.0161666,0.00873074,0.00136391,0.00049202,0.000608482,-0.0476968,0.00102219,0.00111664,0.0112002,-0.0208548,0.000906029,0.000124016,-0.00661377
3,8,0,0,0,0,0,0,231.8,254,0,0,0,0,0,0,0,231.8,766,0,-3.20049e-05,0.000645294,0.000287361,0.0160904,0.00895962,0.000753555,0.00102608,0.000913658,-0.0110757,0.000793304,0.000620727,0.0127261,-0.02116,0.000639,0.000772514,-0.00806335
3,9,0,0,0,0,0,0,231.8,254,0,0,0,0,0,0,0,231.8,766,0,0.000769082,0.000797882,0.00093586,0.017044,0.00838741,0.00102058,0.000530167,0.00201992,0.0728477,0.000640716,0.000391846,0.0140231,-0.0206259,0.000639,0.00130657,-0.00775818
4,0,0,0,0,0,0,0,231.8,254,0,0,0,0,0,0,0,231.8,766,0,0.000273171,0.00133194,0.00127918,0.0164337,0.00686153,0.00124947,0.000301285,0.000684776,0.0167335,0.000984039,0.000925903,0.0153964,-0.0212363,0.00124935,0.00058178,-0.00779633
4,1,0,0,0,0,0,0,231.8,254,0,0,0,0,0,0,0,231.8,766,0,0.000730935,0.00129379,0.000821419,0.0152893,0.00758633,0.00201241,0.000682754,0.000875511,-0.0571954,0.000678863,0.000925903,0.0138324,-0.0208167,0.00170712,0.00020031,-0.00859741
4,2,0,0,0,0,0,0,231.8,254,0,0,0,0,0,0,0,231.8,766,0,0.000578347,0.000759735,0.00112659,0.0169677,0.00693783,0.00170723,0.00114052,0.00114254,0.0868476,0.000526275,0.000353699,0.0158923,-0.0213507,0.00182156,0.000810661,-0.00806335
4,3,0,0,0,0,0,0,231.8,254,0,0,0,0,0,0,0,231.8,766,0,0.0011887,0.000340118,0.00124104,0.016777,0.00277981,0.000524673,0.000682754,0.000684776,0.0136817,0.00113663,0.00104034,0.0158541,-0.0206259,0.00159267,0.000238457,-0.00852112
4,4,0,0,0,0,0,0,231.8,254,0,0,0,0,0,0,0,231.8,766,0,0.00141758,0.000912323,-0.000437431,0.0168914,0.00140652,0.00124947,0.000644607,0.000608482,-0.0550591,3.03648e-05,0.000887756,0.0154727,-0.0210455,0.00102047,0.00134472,-0.00825409
4,5,0,0,0,0,0,0,231.8,254,0,0,0,0,0,0,0,231.8,766,0,0.00126499,0.000530853,0.000668831,0.0156707,0.00361904,0.00117317,0.000224991,0.000989952,0.0981391,0.00121292,8.66698e-05,0.0155871,-0.0222662,0.00117306,0.00058178,-0.0075293
4,6,0,0,0,0,0,0,231.8,254,0,0,0,0,0,0,0,231.8,766,0,0.000578347,0.000530853,0.000897713,0.0158996,-0.00195042,0.00151649,-0.000194626,0.000608482,0.0229133,0.000869598,-0.000142212,0.0139849,-0.0206641,0.00155453,0.000925102,-0.00806335
4,7,0,0,0,0,0,0,231.8,254,0,0,0,0,0,0,0,231.8,766,0,0.000463906,0.000340118,-1.78147e-05,0.0153656,-0.00252262,-0.000161972,0.000415726,0.00076107,-0.0569283,-0.000503693,0.000239258,0.0153582,-0.021694,0.00113491,0.00180248,-0.00966553
4,8,0,0,0,0,0,0,231.8,254,0,0,0,0,0,0,0,231.8,766,0,0.000921669,0.000988617,0.000706978,0.0163192,-0.000882301,0.000867996,0.000682754,0.000532188,0.100657,0.00174698,-0.000104065,0.0146334,-0.0218085,0.00109676,0.00130657,-0.00760559
4,9,0,0,0,0,0,0,231.8,254,0,0,0,0,0,0,0,231.8,766,0,0.000311318,0.00095047,0.00017292,0.0161285,0.0022839,0.00109688,0.000682754,0.000837364,0.0310767,0.000411835,-0.000104065,0.0120013,-0.0222662,0.00147823,0.000543633,-0.00726227
5,0,0,0,0,0,0,0,231.8,254,0,0,0,0,0,0,0,231.8,766,0,0.0005402,0.000607147,0.00055439,0.0158996,-0.000386391,0.000295792,0.00049202,0.000303307,-0.0849664,0.00121292,-0.000104065,0.0157397,-0.0200537,-0.00023838,0.00107769,-0.00951294
5,1,0,0,0,0,0,0,231.8,254,0,0,0,0,0,0,0,231.8,766,0,8.2436e-05,-0.000232087,-0.000361137,0.015747,-0.00195042,0.000524673,-0.000537949,0.000455895,-0.0179421,-0.000236664,-0.00101959,0.0139468,-0.0210455,-9.49856e-06,0.000772514,-0.00840668
5,2,0,0,0,0,0,0,231.8,254,0,0,0,0,0,0,0,231.8,766,0,0.00130314,-0.000232087,-9.41086e-05,0.0161285,-0.000691566,0.00102058,0.000949783,0.000684776,0.0161231,0.000259247,0.00107849,0.0137561,-0.0208929,0.0012112,0.00149731,-0.00825409
5,3,0,0,0,0,0,0,231.8,254,0,0,0,0,0,0,0,231.8,766,0,0.000845375,0.000263824,-9.41086e-05,0.0160141,0.00411495,0.000829849,0.00049202,-4.00161e-05,0.0855506,-0.00016037,0.000849609,0.0151675,-0.0205878,0.00174526,-0.000753365,-0.00756744
5,4,0,0,0,0,0,0,231.8,254,0,0,0,0,0,0,0,231.8,766,0,-0.000146446,0.00144638,0.000974007,0.0161285,0.0079678,0.00136391,0.00121681,0.000799217,-0.0625359,0.000678863,8.66698e-05,0.0173037,-0.0208548,0.00147823,0.000810661,-0.00775818
5,5,0,0,0,0,0,0,231.8,254,0,0,0,0,0,0,0,231.8,766,0,0.000807228,0.00102676,0.000211067,0.0165863,0.00781521,0.00117317,0.000568314,0.000989952,0.0207008,0.00186142,0.000315552,0.016846,-0.0198248,0.00197414,0.00115398,-0.0068045
5,6,0,0,0,0,0,0,231.8,254,0,0,0,0,0,0,0,231.8,766,0,0.000578347,0.0011412,0.0010503,0.0168533,0.0107525,0.00094429,7.24029e-05,0.000303307,0.0852454,0.000640716,1.03759e-05,0.0157779,-0.0219611,0.00102047,0.00115398,-0.00787262
5,7,0,0,0,0,0,0,231.8,254,0,0,0,0,0,0,0,231.8,766,0,-0.000337181,0.000530853,0.000287361,0.0160904,0.00979885,0.00102058,0.000568314,-0.00011631,-0.0605523,0.000907745,0.00119293,0.0163501,-0.02116,0.000982323,0.000810661,-0.00802521
5,8,0,0,0,0,0,0,231.8,254,0,0,0,0,0,0,0,231.8,766,0,-0.000413475,0.000836029,0.00055439,0.015213,0.00934109,0.000295792,0.00011055,-0.000307045,0.00532753,0.000144806,-0.00105774,0.014786,-0.02116,0.000448265,0.000238457,-0.00840668
5,9,0,0,0,0,0,0,231.8,254,0,0,0,0,0,0,0,231.8,766,0,0.000692788,0.000797882,0.00017292,0.0169296,0.00854,0.000829849,0.000911636,0.000684776,0.0672401,0.000297394,-2.77711e-05,0.0159686,-0.0208548,0.000982323,0.00145916,-0.00859741
6,0,0,0,0,0,0,0,231.8,254,0,0,0,0,0,0,0,231.8,766,0,0.000273171,0.00167526,0.00017292,0.015747,0.0101422,0.000753555,0.000568314,0.000227013,-0.0487267,0.000640716,0.000887756,0.0168841,-0.0214651,0.0012875,0.00145916,-0.00867371
6,1,0,0,0,0,0,0,231.8,254,0,0,0,0,0,0,0,231.8,766,0,0.000387612,-0.00030838,0.000287361,0.0161285,0.0120877,0.00117317,0.00125496,0.000188866,0.00696785,0.00071701,-0.000332947,0.0157397,-0.0219611,0.000867882,0.000810661,-0.00901703
6,2,0,0,0,0,0,0,231.8,254,0,0,0,0,0,0,0,231.8,766,0,-0.000184593,7.30893e-05,-0.000857048,0.0156326,0.00846371,0.000906143,0.000530167,0.00076107,0.0722755,-0.000465546,0.000162964,0.0147479,-0.021427,0.000410118,0.000772514,-0.00936035
6,3,0,0,0,0,0,0,231.8,254,0,0,0,0,0,0,0,231.8,766,0,0.000883522,0.000378265,0.000516243,0.0158233,0.00339016,0.000715408,-0.000309067,0.000227013,-0.0471246,0.000106659,0.000124817,0.0158923,-0.021427,0.000867882,-0.000104866,-0.00905518
6,4,0,0,0,0,0,0,231.8,254,0,0,0,0,0,0,0,231.8,766,0,4.4289e-05,0.000683441,0.000821419,0.0165481,7.13731e-05,0.00102058,0.000797195,0.000417748,-0.0351083,-4.59291e-05,0.000315552,0.0126117,-0.0208929,0.000906029,0.00134472,-0.00718597
6,5,0,0,0,0,0,0,231.8,254,0,0,0,0,0,0,0,231.8,766,0,0.0005402,0.00125565,0.000439949,0.0168151,-0.00233189,0.000486526,0.000835342,-0.000421486,-0.00935905,0.00109848,0.000697021,0.0137942,-0.0218848,0.00113491,-2.8572e-05,-0.00909332
6,6,0,0,0,0,0,0,231.8,254,0,0,0,0,0,0,0,231.8,766,0,0.000692788,-0.000727997,0.000668831,0.0160522,-0.00690952,0.000410232,-0.00065239,0.000112572,0.0414146,-4.59291e-05,-0.000218506,0.0128405,-0.0204352,0.000677147,0.000391045,-0.00787262
6,7,0,0,0,0,0,0,231.8,254,0,0,0,0,0,0,0,231.8,766,0,-0.000909385,0.000645294,0.000630684,0.0151367,-0.0103046,0.000639114,-0.000347214,-4.00161e-05,0.0130332,-0.00016037,-0.000218506,0.0110476,-0.0212744,0.00105862,0.00145916,-0.00802521
6,8,0,0,0,0,0,0,231.8,254,0,0,0,0,0,0,0,231.8,766,0,0.000120583,-0.000155793,0.00116474,0.0162048,-0.00736729,0.000295792,-3.89107e-06,0.000684776,-0.0353371,0.00163254,0.000849609,0.0133364,-0.0206641,-0.000200233,0.00126843,-0.00821594
6,9,0,0,0,0,0,0,231.8,254,0,0,0,0,0,0,0,231.8,766,0,0.000769082,0.00152267,0.000439949,0.0160522,-0.00412479,0.00189796,0.000568314,0.000188866,0.0561012,-4.59291e-05,1.03759e-05,0.0153964,-0.0203207,0.00113491,0.000810661,-0.00821594
7,0,0,0,0,0,0,0,231.8,254,0,0,0,0,0,0,0,231.8,766,0,0.00122685,0.000645294,0.000821419,0.0162811,0.000376549,0.000677261,0.00182716,0.000494041,0.0138343,0.00132736,-6.59181e-05,0.0153964,-0.0200537,0.00174526,9.57493e-06,-0.00875
7,1,0,0,0,0,0,0,231.8,254,0,0,0,0,0,0,0,231.8,766,0,4.4289e-05,-3.20468e-06,0.000401802,0.0159378,0.00239834,0.000791702,0.000644607,-0.000345192,-0.0314843,6.85118e-05,-0.000142212,0.0136798,-0.0212363,0.000143089,8.58689e-05,-0.00821594
7,2,0,0,0,0,0,0,231.8,254,0,0,0,0,0,0,0,231.8,766,0,0.000311318,0.000645294,-0.00032299,0.0158615,0.00251278,0.000105057,0.000759048,-0.000421486,0.0682319,0.000640716,-0.000104065,0.0128787,-0.0217322,0.00113491,0.000619926,-0.00813965
7,3,0,0,0,0,0,0,231.8,254,0,0,0,0,0,0,0,231.8,766,0,0.000654641,0.000645294,0.000211067,0.0155563,0.00159725,0.000753555,-0.000156479,0.000112572,0.0217307,0.00071701,0.000735168,0.0153201,-0.0202063,0.000562706,-0.000333748,-0.00718597
7,4,0,0,0,0,0,0,231.8,254,0,0,0,0,0,0,0,231.8,766,0,6.14207e-06,0.000607147,0.00120289,0.0166244,0.00743374,0.00102058,3.42559e-05,0.000494041,-0.0347649,0.000488129,0.000697021,0.0157779,-0.0210455,0.0012875,0.000124016,-0.00867371
7,5,0,0,0,0,0,0,231.8,254,0,0,0,0,0,0,0,231.8,766,0,0.000578347,-7.94986e-05,0.000974007,0.016777,0.00621304,0.000600967,0.00102608,0.000646629,0.0727332,0.00125107,0.000391846,0.0230258,-0.0215033,0.000410118,0.000963249,-0.00878815
7,6,0,0,0,0,0,0,231.8,254,0,0,0,0,0,0,0,231.8,766,0,0.00164646,0.0011412,0.00127918,0.0163574,0.00751003,0.00163094,0.00148384,0.000608482,0.0290549,0.000488129,0.00138367,0.0183718,-0.021427,0.00117306,0.000848808,-0.00825409
7,7,0,0,0,0,0,0,231.8,254,0,0,0,0,0,0,0,231.8,766,0,0.000997963,0.0012175,0.000630684,0.0151748,0.00575527,0.000829849,0.00110237,0.000455895,-0.0527322,-0.000274811,-2.77711e-05,0.0156253,-0.0217322,0.000715294,0.00229839,-0.00897888
7,8,0,0,0,0,0,0,231.8,254,0,0,0,0,0,0,0,231.8,766,0,0.000196877,0.000759735,0.000134773,0.015213,0.00686153,0.000295792,0.00114052,0.000913658,-0.00634544,0.00071701,-0.000104065,0.0176089,-0.0206259,0.000715294,0.000391045,-0.00855927
7,9,0,0,0,0,0,0,231.8,254,0,0,0,0,0,0,0,231.8,766,0,-3.20049e-05,0.000683441,0.000859566,0.0166244,0.00758633,0.000410232,0.00060646,-0.00011631,0.0158561,0.0014418,-2.77711e-05,0.0173419,-0.0210455,0.000944176,0.00164989,-0.00749115
8,0,0,0,0,0,0,0,231.8,254,0,0,0,0,0,0,0,231.8,766,0,0.000997963,0.00125565,0.00101215,0.0165863,0.00773891,0.00094429,0.000682754,-0.000459633,0.0631965,0.000945892,0.0010022,0.0157397,-0.0208548,0.000410118,0.00107769,-0.00943665
8,1,0,0,0,0,0,0,231.8,254,0,0,0,0,0,0,0,231.8,766,0,8.2436e-05,-0.00068985,0.000363655,0.0158996,0.00842556,0.000181351,0.000568314,-0.000802956,-0.033735,0.000335541,0.000277405,0.0148242,-0.0208548,0.000982323,0.00020031,-0.00871185
8,2,0,0,0,0,0,0,231.8,254,0,0,0,0,0,0,0,231.8,766,0,0.000692788,7.30893e-05,0.00017292,0.0148697,0.00785336,0.000677261,-0.000194626,0.000188866,0.0130714,-0.000198517,-0.000485535,0.014252,-0.0218085,0.000524559,0.000925102,-0.00981812
8,3,0,0,0,0,0,0,231.8,254,0,0,0,0,0,0,0,231.8,766,0,0.000845375,-0.000117646,0.00124104,0.01651,0.0136898,0.000257645,0.00148384,0.00076107,0.0597251,0.00113663,0.00134552,0.0124591,-0.0216559,0.00136379,0.0010014,-0.00794891
8,4,0,0,0,0,0,0,231.8,254,0,0,0,0,0,0,0,231.8,766,0,-0.000299034,0.000454559,0.00177509,0.0159378,0.0182293,0.0014402,0.00106422,0.000532188,-0.031141,0.00170883,0.000277405,0.0118869,-0.0206259,0.00102047,0.00107769,-0.00772003
8,5,0,0,0,0,0,0,231.8,254,0,0,0,0,0,0,0,231.8,766,0,0.00126499,0.001866,2.03323e-05,0.0170059,0.0189541,0.00132576,0.00106422,0.000341454,0.0169242,0.000526275,-0.000104065,0.0128024,-0.020397,0.00140194,0.00126843,-0.00852112
8,6,0,0,0,0,0,0,231.8,254,0,0,0,0,0,0,0,231.8,766,0,0.000807228,0.000340118,0.000859566,0.0166626,0.0166653,0.000524673,0.00117867,0.000646629,0.0744117,-0.000274811,0.000353699,0.0128787,-0.0205878,0.00136379,0.000124016,-0.00733856
8,7,0,0,0,0,0,0,231.8,254,0,0,0,0,0,0,0,231.8,766,0,0.000654641,0.000721588,0.00055439,0.0161666,0.0160168,0.00109688,0.00114052,0.000341454,-0.0333916,0.000488129,-0.000104065,0.0138705,-0.0211218,0.000982323,0.00176434,-0.00852112
8,8,0,0,0,0,0,0,231.8,254,0,0,0,0,0,0,0,231.8,766,0,0.00107426,0.000797882,0.000859566,0.0156707,0.0169323,0.000372085,0.000873489,0.000379601,0.0169242,0.00117477,0.000773315,0.015549,-0.0216559,0.00109676,-0.000219307,-0.00836853
8,9,0,0,0,0,0,0,231.8,254,0,0,0,0,0,0,0,231.8,766,0,0.00122685,0.000836029,0.00112659,0.0158996,0.010867,0.00151649,0.00117867,0.000379601,0.0813544,0.00071701,0.000697021,0.0130694,-0.0209311,0.000562706,8.58689e-05,-0.00890259
9,0,0,0,0,0,0,0,231.8,254,0,0,0,0,0,0,0,231.8,766,0,0.000845375,0.00171341,0.00177509,0.0171203,0.00621304,0.000867996,0.00140755,0.00110439,-0.0375115,0.000907745,0.00123108,0.0139468,-0.0210837,0.00105862,0.00058178,-0.00894073
9,1,0,0,0,0,0,0,231.8,254,0,0,0,0,0,0,0,231.8,766,0,-0.000833091,-0.000460968,0.000401802,0.0161285,0.00720486,0.000295792,0.000301285,-0.000307045,-0.0297295,-8.40761e-05,0.000773315,0.011925,-0.0212744,0.00105862,0.000124016,-0.00958923
9,2,0,0,0,0,0,0,231.8,254,0,0,0,0,0,0,0,231.8,766,0,6.14207e-06,0.000454559,0.000363655,0.0156326,0.00457272,0.00102058,0.00148384,-0.00011631,-0.0037133,0.000984039,0.00046814,0.0132983,-0.0209692,0.000982323,0.00130657,-0.00806335
9,3,0,0,0,0,0,0,231.8,254,0,0,0,0,0,0,0,231.8,766,0,0.000578347,-0.00103317,0.000897713,0.0160904,0.00331387,0.000295792,0.000873489,-0.00011631,0.0769294,-0.000503693,0.000162964,0.014786,-0.0215033,0.000524559,0.000505486,-0.00947479
9,4,0,0,0,0,0,0,231.8,254,0,0,0,0,0,0,0,231.8,766,0,-0.000871238,-7.94986e-05,0.000706978,0.0147171,0.00144466,0.00117317,0.00121681,-7.81631e-05,0.167452,-0.000122223,-0.000332947,0.0125354,-0.0199393,0.000600853,0.00115398,-0.0081015
9,5,0,0,0,0,0,0,231.8,254,0,0,0,0,0,0,0,231.8,766,0,0.00141758,0.00140823,0.00120289,0.0159378,-0.000577125,0.000105057,0.00129311,0.000608482,0.140444,0.00170883,0.00111664,0.0143283,-0.021694,0.000600853,0.00142101,-0.00882629
9,6,0,0,0,0,0,0,231.8,254,0,0,0,0,0,0,0,231.8,766,0,0.00160831,0.000340118,0.00127918,0.0169677,-0.0034,0.000829849,0.00144569,-7.81631e-05,0.102068,6.85118e-05,0.000544433,0.0109713,-0.0211218,-0.000162086,0.000391045,-0.00829224
9,7,0,0,0,0,0,0,231.8,254,0,0,0,0,0,0,0,231.8,766,0,-0.000489769,-0.000422821,0.000134773,0.0150222,-0.004697,-0.000505295,0.000949783,0.000875511,-0.0459039,-0.000885163,0.000620727,0.0112384,-0.0219229,0.00025753,0.00058178,-0.00882629
9,8,0,0,0,0,0,0,231.8,254,0,0,0,0,0,0,0,231.8,766,0,0.0011887,-0.000422821,2.03323e-05,0.0157852,-0.000119362,-0.000543442,0.00011055,0.000188866,-0.0890099,-0.000198517,0.00123108,0.0146716,-0.0221136,2.86484e-05,0.00103954,-0.00886444
9,9,0,0,0,0,0,0,231.8,254,0,0,0,0,0,0,0,231.8,766,0,0.000997963,0.000874176,0.000897713,0.0156707,0.0022076,0.00094429,0.000377579,-4.00161e-05,0.0331748,0.000869598,0.000162964,0.0134127,-0.0207404,6.67954e-05,0.000467339,-0.00737671
10,0,0,0,0,0,0,0,231.8,254,0,0,0,0,0,0,0,231.8,766,0,0.000883522,0.000378265,9.66262e-05,0.01548,-0.00111118,0.000639114,0.000453873,0.000150719,-0.0206887,0.000411835,0.000735168,0.0134509,-0.0205115,0.000944176,0.00069622,-0.00878815
10,1,0,0,0,0,0,0,231.8,254,0,0,0,0,0,0,0,231.8,766,0,0.000502053,-0.000499115,0.000439949,0.0166626,0.00174984,0.000639114,0.00133125,0.000989952,-0.0787103,-8.40761e-05,0.000887756,0.0126879,-0.0206641,0.00105862,-0.000219307,-0.00813965
10,2,0,0,0,0,0,0,231.8,254,0,0,0,0,0,0,0,231.8,766,0,0.0017609,0.00156082,0.000974007,0.0170822,0.00319942,-9.38424e-06,0.000224991,0.00106625,0.0409949,0.00121292,0.000506287,0.0124209,-0.021427,0.00155453,0.00180248,-0.00802521
10,3,0,0,0,0,0,0,231.8,254,0,0,0,0,0,0,0,231.8,766,0,0.000654641,0.000874176,-5.59617e-05,0.0162429,0.00144466,0.000791702,0.000911636,0.000646629,-0.00531548,-0.000236664,0.0015744,0.0108569,-0.0213889,0.000906029,0.00115398,-0.00913147
10,4,0,0,0,0,0,0,231.8,254,0,0,0,0,0,0,0,231.8,766,0,0.000196877,-0.00019394,-1.78147e-05,0.0158996,-0.000806007,0.000143204,0.00117867,0.000455895,-0.0856911,-0.000351105,-0.000638123,0.0113528,-0.0216559,0.00109676,0.000162163,-0.00913147
10,5,0,0,0,0,0,0,231.8,254,0,0,0,0,0,0,0,231.8,766,0,0.000997963,0.000340118,0.000249214,0.0154037,-0.00271336,-4.75312e-05,0.00102608,0.00076107,-0.0336968,0.000259247,0.000353699,0.0121157,-0.0216559,0.000181236,0.0010014,-0.00863556
10,6,0,0,0,0,0,0,231.8,254,0,0,0,0,0,0,0,231.8,766,0,0.0011124,0.000492706,0.000783272,0.0158615,-0.000500832,0.000410232,0.000186844,-0.000535927,-0.0112664,0.000793304,0.00145996,0.0140994,-0.0205496,0.00113491,-0.000677071,-0.00764374
10,7,0,0,0,0,0,0,231.8,254,0,0,0,0,0,0,0,231.8,766,0,0.000235024,-0.000613556,2.03323e-05,0.0150985,-0.00027195,0.000486526,0.000797195,0.00110439,0.0386298,0.00071701,0.000544433,0.0150912,-0.0214651,0.00025753,0.00180248,-0.0068808
10,8,0,0,0,0,0,0,231.8,254,0,0,0,0,0,0,0,231.8,766,0,0.00130314,0.00159897,0.000668831,0.0163955,0.00167355,0.00113502,0.00098793,0.000227013,-0.0521218,0.000449982,0.000735168,0.0132602,-0.021427,0.00132565,0.00241283,-0.00981812
10,9,0,0,0,0,0,0,231.8,254,0,0,0,0,0,0,0,231.8,766,0,-7.01519e-05,0.000301971,0.0010503,0.0165481,0.00106319,0.00128761,0.000911636,0.00076107,-0.00138634,0.00163254,0.00123108,0.0163501,-0.0189093,0.00124935,0.00161175,-0.007453
11,0,0,0,0,0,0,0,231.8,254,0,0,0,0,0,0,0,231.8,766,0,0.000845375,0.000874176,-0.000170403,0.0165863,0.00438198,0.000333939,0.000339432,0.000494041,0.047747,-8.40761e-05,0.000773315,0.0180285,-0.0218085,0.000600853,0.000734367,-0.00890259
11,1,0,0,0,0,0,0,231.8,254,0,0,0,0,0,0,0,231.8,766,0,-0.000489769,-0.00122391,0.000249214,0.0158615,0.00583157,0.000448379,0.000835342,-0.000574074,-0.0421273,-0.000351105,-0.000409241,0.017113,-0.0211218,0.00102047,0.000314751,-0.00905518
11,2,0,0,0,0,0,0,231.8,254,0,0,0,0,0,0,0,231.8,766,0,0.000616494,0.000263824,0.000401802,0.0155944,0.00453457,0.000639114,0.00049202,0.000455895,0.00994331,-4.59291e-05,0.00058258,0.0174563,-0.021427,0.00105862,0.00210766,-0.0075293
11,3,0,0,0,0,0,0,231.8,254,0,0,0,0,0,0,0,231.8,766,0,0.000463906,0.00198044,0.000668831,0.0158615,0.0129269,0.000219498,0.00098793,0.00144772,0.0680793,0.000182953,-0.0002948,0.0152056,-0.0224188,0.000753441,0.00020031,-0.00848297
11,4,0,0,0,0,0,0,231.8,254,0,0,0,0,0,0,0,231.8,766,0,0.000425759,0.000149383,0.000668831,0.0160141,0.0136135,0.000219498,0.000530167,0.000532188,-0.038923,0.00113663,0.000124817,0.0137942,-0.0214651,0.000867882,0.000391045,-0.00875
11,5,0,0,0,0,0,0,231.8,254,0,0,0,0,0,0,0,231.8,766,0,0.00130314,0.00148453,0.00127918,0.0167007,0.0145291,0.00105873,0.000224991,0.0010281,0.0149024,0.000488129,0.00107849,0.0146716,-0.021694,0.000944176,0.000848808,-0.00798706
11,6,0,0,0,0,0,0,231.8,254,0,0,0,0,0,0,0,231.8,766,0,0.000845375,0.000645294,0.000668831,0.0162811,0.0136517,0.000448379,0.000911636,0.000341454,0.077616,0.000335541,-6.59181e-05,0.0131839,-0.0213889,0.000371971,-0.000448189,-0.00882629
11,7,0,0,0,0,0,0,231.8,254,0,0,0,0,0,0,0,231.8,766,0,-0.000451622,-0.000346527,0.000478096,0.01548,0.00995144,-9.38424e-06,-0.000232773,0.000951805,-0.03816,-0.000122223,1.03759e-05,0.0141375,-0.0225714,0.000143089,0.00111584,-0.00802521
11,8,0,0,0,0,0,0,231.8,254,0,0,0,0,0,0,0,231.8,766,0,6.14207e-06,-0.00068985,0.00124104,0.0160522,0.00873074,0.000524673,0.000835342,0.000150719,-0.0281274,0.000373688,0.000391846,0.0152819,-0.021694,0.00102047,0.00248913,-0.00821594
11,9,0,0,0,0,0,0,231.8,254,0,0,0,0,0,0,0,231.8,766,0,0.000616494,7.30893e-05,-0.000437431,0.0158615,0.0097607,0.000867996,-0.000537949,0.000303307,-0.00394218,0.0002211,-0.00117218,0.0153964,-0.0208548,0.00025753,0.00111584,-0.00703339
12,0,0,0,0,0,0,0,231.8,254,0,0,0,0,0,0,0,231.8,766,0,0.00130314,0.000492706,0.000325508,0.01548,0.00617489,0.00117317,0.00102608,0.00076107,0.0471366,0.000297394,-0.00067627,0.0169986,-0.0208929,0.00140194,0.00138287,-0.00718597
12,1,0,0,0,0,0,0,231.8,254,0,0,0,0,0,0,0,231.8,766,0,0.000387612,0.00018753,5.84793e-05,0.0158615,0.00632748,-4.75312e-05,-3.89107e-06,0.000455895,0.019213,0.000526275,0.000391846,0.0148623,-0.021427,0.00147823,0.000352898,-0.00909332
12,2,0,0,0,0,0,0,231.8,254,0,0,0,0,0,0,0,231.8,766,0,4.4289e-05,-0.000460968,0.00055439,0.0151748,0.00270351,-0.000123825,0.000530167,0.000379601,-0.032705,0.000488129,-0.000409241,0.0133746,-0.0224188,0.000677147,0.00134472,-0.00821594
12,3,0,0,0,0,0,0,231.8,254,0,0,0,0,0,0,0,231.8,766,0,0.000959816,0.000530853,-0.000818901,0.0158996,0.00148281,0.00124947,0.000720901,0.000837364,0.0606788,3.03648e-05,-0.000828858,0.0134509,-0.02116,0.000219383,0.0010014,-0.00859741
12,4,0,0,0,0,0,0,231.8,254,0,0,0,0,0,0,0,231.8,766,0,0.000807228,0.000988617,0.000478096,0.0164337,0.00354275,0.000372085,0.00110237,0.000684776,0.0153983,0.000755157,0.000697021,0.0138705,-0.02116,0.00166897,0.000467339,-0.00913147
12,5,0,0,0,0,0,0,231.8,254,0,0,0,0,0,0,0,231.8,766,0,0.00115055,0.000454559,0.000668831,0.0165481,0.00117764,0.00109688,0.00060646,0.00156216,-0.027517,0.000678863,0.000544433,0.0102847,-0.0212363,0.000906029,0.00115398,-0.00855927
12,6,0,0,0,0,0,0,231.8,254,0,0,0,0,0,0,0,231.8,766,0,0.000425759,0.000912323,0.000401802,0.0167389,-0.00183598,0.000410232,0.000224991,-0.000726662,0.0707496,0.00117477,0.00115479,0.0115054,-0.0203589,0.00144009,-2.8572e-05,-0.00920776
12,7,0,0,0,0,0,0,231.8,254,0,0,0,0,0,0,0,231.8,766,0,0.000311318,-0.000232087,0.000287361,0.0162429,-0.00233189,0.000600967,0.000263138,0.000494041,0.0234473,0.000640716,0.000887756,0.0145953,-0.0215033,0.00117306,0.000162163,-0.00875
12,8,0,0,0,0,0,0,231.8,254,0,0,0,0,0,0,0,231.8,766,0,0.000349465,0.00106491,0.000859566,0.0158233,-0.00412479,0.00056282,0.000835342,0.00114254,-0.0331628,-0.000503693,0.000124817,0.0155108,-0.0213507,0.000715294,0.00138287,-0.0093222
12,9,0,0,0,0,0,0,231.8,254,0,0,0,0,0,0,0,231.8,766,0,0.000616494,0.000988617,0.00150806,0.0166244,-0.00557438,0.00094429,0.000911636,0.00156216,0.0752509,0.00109848,0.000544433,0.0163119,-0.0206641,0.000906029,0.000925102,-0.00813965
13,0,0,0,0,0,0,0,231.8,254,0,0,0,0,0,0,0,231.8,766,0,0.000463906,0.0011412,-0.00020855,0.0170822,-0.00828281,0.000829849,0.000148697,0.00076107,0.0296272,0.00106033,0.000506287,0.0153582,-0.0208929,0.000753441,0.00233654,-0.00863556
13,1,0,0,0,0,0,0,231.8,254,0,0,0,0,0,0,0,231.8,766,0,0.00107426,0.000530853,-0.000895195,0.0159759,-0.0071384,0.000410232,0.00106422,0.00026516,-0.05216,0.000678863,0.000277405,0.0178759,-0.0219229,0.00144009,0.000391045,-0.0093985
13,2,0,0,0,0,0,0,231.8,254,0,0,0,0,0,0,0,231.8,766,0,-0.000299034,0.00156082,0.000668831,0.0160904,-0.00248447,0.000867996,0.000263138,-7.81631e-05,-0.00718468,0.000106659,0.000162964,0.0150149,-0.0207404,0.0012112,0.0010014,-0.00886444
13,3,0,0,0,0,0,0,231.8,254,0,0,0,0,0,0,0,231.8,766,0,0.000120583,-7.94986e-05,-5.59617e-05,0.0157089,0.000719872,0.000181351,0.000415726,0.00110439,0.0202811,-0.000312958,0.000544433,0.0150531,-0.0226096,0.00105862,0.00172619,-0.00905518
13,4,0,0,0,0,0,0,231.8,254,0,0,0,0,0,0,0,231.8,766,0,0.000692788,0.00018753,0.000401802,0.0162429,-0.000882301,0.000524673,0.000224991,0.000150719,0.143725,0.00071701,0.000239258,0.0143664,-0.0220374,0.00025753,-0.000448189,-0.00813965
13,5,0,0,0,0,0,0,231.8,254,0,0,0,0,0,0,0,231.8,766,0,0.000196877,0.000492706,-0.000284843,0.01548,0.00445827,0.00056282,-3.89107e-06,-0.000268898,0.157877,0.000297394,-0.000447388,0.0138324,-0.0221518,0.000181236,0.000352898,-0.00852112
13,6,0,0,0,0,0,0,231.8,254,0,0,0,0,0,0,0,231.8,766,0,0.000654641,-0.00122391,0.000287361,0.0155182,0.0108288,-0.000619736,0.000339432,0.000227013,0.129038,0.00071701,-0.000218506,0.00715664,-0.0209692,0.000104942,-0.000219307,-0.00882629
13,7,0,0,0,0,0,0,231.8,254,0,0,0,0,0,0,0,231.8,766,0,-0.000451622,-0.000499115,0.000478096,0.0151748,0.0125454,0.000600967,-0.000194626,0.000341454,0.0417197,0.000106659,-0.000142212,0.00627926,-0.0223044,0.000448265,0.00130657,-0.00871185
13,8,0,0,0,0,0,0,231.8,254,0,0,0,0,0,0,0,231.8,766,0,0.000578347,-0.000422821,0.000134773,0.0152511,0.0116299,6.69097e-05,-0.000347214,0.000303307,-0.101713,0.000335541,1.03759e-05,0.0179141,-0.021694,0.000486412,0.000352898,-0.00855927
13,9,0,0,0,0,0,0,231.8,254,0,0,0,0,0,0,0,231.8,766,0,0.00134129,0.000645294,0.000325508,0.0161285,0.00934109,0.000524673,0.000911636,0.000303307,-0.0241982,-0.000236664,0.000162964,0.0180285,-0.0220755,0.000677147,0.000925102,-0.00760559
14,0,0,0,0,0,0,0,231.8,254,0,0,0,0,0,0,0,231.8,766,0,0.000769082,0.0011412,0.000478096,0.0163192,0.00842556,0.000982437,0.000186844,0.00148586,0.0372565,0.00109848,-0.000599976,0.0200122,-0.0204733,0.000982323,0.00107769,-0.00875
14,1,0,0,0,0,0,0,231.8,254,0,0,0,0,0,0,0,231.8,766,0,0.000692788,0.00018753,-0.000742607,0.0150222,0.00403866,0.000181351,3.42559e-05,0.000837364,-0.0793206,0.000488129,-0.000943298,0.0177615,-0.0210837,0.00109676,0.000886955,-0.00886444
14,2,0,0,0,0,0,0,231.8,254,0,0,0,0,0,0,0,231.8,766,0,0.00115055,0.0011412,0.000630684,0.0160904,0.00541195,0.000372085,0.000911636,0.00118069,-0.0194299,0.00136551,0.00149811,0.0202411,-0.0212363,0.00117306,0.00184063,-0.00756744
14,3,0,0,0,0,0,0,231.8,254,0,0,0,0,0,0,0,231.8,766,0,8.2436e-05,0.000492706,0.0010503,0.0164718,0.00461086,0.00151649,0.000377579,-0.000688515,0.0507987,0.000297394,0.000277405,0.018677,-0.0195578,-0.000772438,0.00107769,-0.00913147
14,4,0,0,0,0,0,0,231.8,254,0,0,0,0,0,0,0,231.8,766,0,0.000578347,0.000454559,0.000363655,0.0163192,0.00224575,0.000715408,0.00098793,0.000303307,-0.0718438,0.000793304,-0.0002948,0.0163882,-0.0220374,0.00105862,0.000276604,-0.00852112
14,5,0,0,0,0,0,0,231.8,254,0,0,0,0,0,0,0,231.8,766,0,-0.00022274,0.000912323,0.000974007,0.0158615,0.000719872,0.000829849,-0.000499802,0.000951805,-0.0563943,0.000945892,-0.000218506,0.0178378,-0.0211981,0.000906029,0.00180248,-0.00821594
14,6,0,0,0,0,0,0,231.8,254,0,0,0,0,0,0,0,231.8,766,0,-0.000985679,0.00106491,0.000439949,0.0165481,0.00197872,0.000257645,0.00060646,0.000455895,-0.0288522,0.000411835,0.00115479,0.016083,-0.021427,0.000562706,0.00103954,-0.00768188
14,7,0,0,0,0,0,0,231.8,254,0,0,0,0,0,0,0,231.8,766,0,0.00115055,0.000225677,0.000134773,0.0173492,0.000719872,0.000867996,0.000148697,-0.000307045,0.0263084,0.000449982,1.03759e-05,0.0150912,-0.0200156,0.00147823,-0.000257454,-0.00722412
14,8,0,0,0,0,0,0,231.8,254,0,0,0,0,0,0,0,231.8,766,0,0.000311318,0.000721588,-0.000399284,0.0162048,-0.00416294,0.000677261,0.000453873,0.00076107,-0.0030648,-0.000198517,-2.77711e-05,0.0119632,-0.021694,0.00117306,0.00103954,-0.00836853
14,9,0,0,0,0,0,0,231.8,254,0,0,0,0,0,0,0,231.8,766,0,0.000883522,0.000340118,0.000401802,0.0164718,-0.00507847,0.000181351,0.000301285,0.000417748,-0.0492608,-8.40761e-05,-0.000409241,0.0149386,-0.0212744,0.000829735,-0.000638924,-0.00813965
15,0,0,0,0,0,0,0,231.8,254,0,0,0,0,0,0,0,231.8,766,0,0.000196877,0.000874176,0.00135548,0.0171203,-0.000424538,0.00109688,0.000530167,0.000227013,0.0445426,0.00140366,-0.000142212,0.0138705,-0.0203589,0.000448265,0.00119213,-0.00737671
15,1,0,0,0,0,0,0,231.8,254,0,0,0,0,0,0,0,231.8,766,0,0.00141758,0.00140823,0.000211067,0.0167007,-0.0034763,0.000410232,0.00125496,0.000684776,0.00425941,0.000564422,0.00126923,0.0128787,-0.0212363,0.00113491,0.000886955,-0.00844482
15,2,0,0,0,0,0,0,231.8,254,0,0,0,0,0,0,0,231.8,766,0,0.000463906,0.000836029,0.00124104,0.0162429,-0.00435368,0.00094429,0.000568314,0.000570335,-0.0401055,0.000182953,0.000315552,0.0130694,-0.020397,0.000562706,-0.000295601,-0.00905518
15,3,0,0,0,0,0,0,231.8,254,0,0,0,0,0,0,0,231.8,766,0,-0.000947532,0.000645294,-0.000170403,0.0158615,-0.00465885,0.000639114,-0.000194626,-0.000612221,0.0623573,0.000449982,-0.000599976,0.0120013,-0.0216559,0.000448265,-0.00102039,-0.00920776
15,4,0,0,0,0,0,0,231.8,254,0,0,0,0,0,0,0,231.8,766,0,0.00134129,0.000340118,0.000516243,0.0169677,0.000338402,0.000372085,0.000148697,-0.000383339,0.0163139,0.00132736,0.0010022,0.0125354,-0.0203589,0.00147823,-0.00140186,-0.00829224
15,5,0,0,0,0,0,0,231.8,254,0,0,0,0,0,0,0,231.8,766,0,0.000692788,0.000836029,0.000439949,0.0156707,0.00670895,0.000639114,-4.2038e-05,0.000303307,-0.0391518,-0.000312958,0.000887756,0.0132602,-0.0219992,0.000143089,0.000619926,-0.00829224
15,6,0,0,0,0,0,0,231.8,254,0,0,0,0,0,0,0,231.8,766,0,0.0005402,-0.000117646,0.000897713,0.0157852,0.0122784,0.000181351,0.000186844,0.000112572,0.0693763,-0.000236664,0.00046814,0.0157016,-0.0207785,0.000906029,8.58689e-05,-0.00913147
15,7,0,0,0,0,0,0,231.8,254,0,0,0,0,0,0,0,231.8,766,0,0.000769082,0.0011412,0.000592537,0.016777,0.0143002,0.00140205,0.000301285,0.000455895,0.0264991,0.000678863,0.000506287,0.0138324,-0.0213507,0.00102047,0.000925102,-0.00813965
15,8,0,0,0,0,0,0,231.8,254,0,0,0,0,0,0,0,231.8,766,0,0.00107426,0.000340118,2.03323e-05,0.0159759,0.010867,0.00155464,0.000835342,0.000303307,-0.0541055,0.000106659,-0.000180359,0.0135272,-0.0207404,0.000371971,0.000963249,-0.0081778
15,9,0,0,0,0,0,0,231.8,254,0,0,0,0,0,0,0,231.8,766,0,8.2436e-05,0.000836029,0.000706978,0.0150985,0.0104855,0.000791702,0.000797195,0.000494041,-0.00684135,0.000411835,0.000124817,0.0110476,-0.0202826,0.000143089,0.00123028,-0.00791077
16,0,0,0,0,0,0,0,231.8,254,0,0,0,0,0,0,0,231.8,766,0,0.000959816,0.00110306,0.00124104,0.0168914,0.00945553,-0.000200119,0.00102608,0.000341454,0.0101722,0.000335541,0.000544433,0.0135653,-0.0204352,0.000639,0.00130657,-0.00825409
16,1,0,0,0,0,0,0,231.8,254,0,0,0,0,0,0,0,231.8,766,0,0.000120583,0.000988617,0.000287361,0.0161666,0.00899776,0.00102058,-3.89107e-06,0.000570335,0.0610221,0.00106033,1.03759e-05,0.0151675,-0.0206641,0.000867882,0.00138287,-0.00836853
16,2,0,0,0,0,0,0,231.8,254,0,0,0,0,0,0,0,231.8,766,0,-0.000451622,0.000759735,-0.000170403,0.0154037,0.0106762,0.000410232,0.000301285,-0.000535927,-0.0337731,-0.000618134,-0.000638123,0.0139087,-0.0219229,0.000829735,0.000467339,-0.00924591
16,3,0,0,0,0,0,0,231.8,254,0,0,0,0,0,0,0,231.8,766,0,-0.000146446,0.000340118,-0.000170403,0.0157852,0.0104473,0.000181351,0.00011055,-4.00161e-05,0.0128043,0.00102219,0.000429993,0.0152056,-0.0206259,-9.49856e-06,0.000352898,-0.00905518
16,4,0,0,0,0,0,0,231.8,254,0,0,0,0,0,0,0,231.8,766,0,-0.000146446,7.30893e-05,0.000668831,0.0153656,0.0136135,0.000143204,-0.000194626,-0.00118443,0.0609077,0.000449982,-0.000409241,0.0156253,-0.0213889,0.000600853,-2.8572e-05,-0.00936035
16,5,0,0,0,0,0,0,231.8,254,0,0,0,0,0,0,0,231.8,766,0,0.000196877,-0.00107132,0.000592537,0.0155182,0.0138806,0.000448379,-0.000118332,-0.000459633,-0.0303399,0.000411835,0.000353699,0.0146716,-0.0216559,0.000562706,-0.000295601,-0.00825409
16,6,0,0,0,0,0,0,231.8,254,0,0,0,0,0,0,0,231.8,766,0,0.000311318,0.000225677,-1.78147e-05,0.0153274,0.0111721,0.000867996,-8.0185e-05,-0.000154457,0.018946,3.03648e-05,0.000811462,0.0139468,-0.0219992,0.000753441,0.000543633,-0.0081778
16,7,0,0,0,0,0,0,231.8,254,0,0,0,0,0,0,0,231.8,766,0,0.00134129,0.000607147,0.000668831,0.0160522,0.010104,0.000829849,0.00167458,0.000875511,0.0761665,0.00102219,-0.000523682,0.0139849,-0.0211981,0.000524559,0.00145916,-0.00783447
16,8,0,0,0,0,0,0,231.8,254,0,0,0,0,0,0,0,231.8,766,0,0.000387612,0.000416412,0.000516243,0.0162048,0.0145672,-0.000276413,3.42559e-05,0.000112572,-0.0328576,-7.78213e-06,-0.000371094,0.0163501,-0.0214651,0.000753441,-2.8572e-05,-0.00813965
16,9,0,0,0,0,0,0,231.8,254,0,0,0,0,0,0,0,231.8,766,0,0.000349465,7.30893e-05,2.03323e-05,0.0155944,0.0182293,0.000105057,0.00121681,-0.000383339,0.0182975,0.000678863,0.000277405,0.012192,-0.0221136,0.000448265,0.00069622,-0.00943665
17,0,0,0,0,0,0,0,231.8,254,0,0,0,0,0,0,0,231.8,766,0,0.000311318,0.000454559,0.00055439,0.0158233,0.0165127,0.00094429,0.000797195,-0.000307045,0.0816978,0.00117477,0.000620727,0.00730923,-0.0210837,0.000600853,0.000886955,-0.00848297
17,1,0,0,0,0,0,0,231.8,254,0,0,0,0,0,0,0,231.8,766,0,0.000845375,0.00224747,0.000783272,0.0162048,0.0140332,0.000486526,0.00114052,0.00121883,-0.0362145,0.00117477,0.000925903,0.0113147,-0.0208167,0.00132565,0.000391045,-0.00875
17,2,0,0,0,0,0,0,231.8,254,0,0,0,0,0,0,0,231.8,766,0,0.000349465,0.000416412,0.000592537,0.0155563,0.0138424,0.000410232,-4.2038e-05,-0.000383339,-0.0276315,0.000678863,0.000429993,0.0128024,-0.0212363,0.000562706,-0.00018116,-0.00825409
17,3,0,0,0,0,0,0,231.8,254,0,0,0,0,0,0,0,231.8,766,0,0.000502053,0.000797882,0.000897713,0.0161666,0.0102185,0.000333939,0.00098793,0.000532188,-0.00226372,0.00071701,0.000506287,0.0178378,-0.0213889,0.00102047,0.00107769,-0.0081015
17,4,0,0,0,0,0,0,231.8,254,0,0,0,0,0,0,0,231.8,766,0,0.0017609,0.000645294,0.000325508,0.0150985,0.00438198,0.00117317,0.000263138,-0.000421486,0.0805152,0.000945892,0.00115479,0.0152056,-0.0207785,-9.49856e-06,0.00103954,-0.00970367
17,5,0,0,0,0,0,0,231.8,254,0,0,0,0,0,0,0,231.8,766,0,0.000273171,0.000340118,-1.78147e-05,0.0158233,-0.00183598,-0.000657883,7.24029e-05,0.000341454,0.169131,0.000144806,0.000277405,0.0119632,-0.0209692,0.000295677,-0.000104866,-0.00821594
17,6,0,0,0,0,0,0,231.8,254,0,0,0,0,0,0,0,231.8,766,0,0.000502053,-0.000270233,9.66262e-05,0.0158615,0.000338402,0.000448379,0.000720901,7.44248e-05,0.141054,0.000869598,0.000506287,0.018143,-0.0219611,0.000677147,0.000810661,-0.00981812
17,7,0,0,0,0,0,0,231.8,254,0,0,0,0,0,0,0,231.8,766,0,-0.000337181,-0.000613556,0.000287361,0.0155944,0.0078915,0.000143204,0.00011055,-0.00126072,0.102755,0.000411835,-2.77711e-05,0.0224917,-0.0207785,0.000677147,-0.000524483,-0.00779633
17,8,0,0,0,0,0,0,231.8,254,0,0,0,0,0,0,0,231.8,766,0,0.000616494,-0.000232087,0.000630684,0.0155182,0.00743374,0.000906143,0.000377579,0.000150719,-0.0454079,0.00163254,-0.000447388,0.0198596,-0.0215796,0.000562706,0.00069622,-0.00772003
17,9,0,0,0,0,0,0,231.8,254,0,0,0,0,0,0,0,231.8,766,0,0.00107426,0.000797882,0.000592537,0.0164718,0.00834927,6.69097e-05,0.00152199,0.000913658,-0.0872552,0.000526275,8.66698e-05,0.014252,-0.0213126,0.00132565,0.000352898,-0.00913147
18,0,0,0,0,0,0,0,231.8,254,0,0,0,0,0,0,0,231.8,766,0,0.000807228,0.000797882,0.000325508,0.0155182,0.00392422,0.000677261,0.00140755,0.000303307,0.0339378,0.000335541,0.000124817,0.0138324,-0.0205878,0.00178341,0.000848808,-0.00791077
18,1,0,0,0,0,0,0,231.8,254,0,0,0,0,0,0,0,231.8,766,0,0.000845375,-0.000117646,0.000249214,0.0154037,-0.000157509,0.00056282,0.000873489,0.000341454,-0.0198876,0.000564422,0.000849609,0.0117343,-0.0218466,0.000715294,0.00123028,-0.00852112
18,2,0,0,0,0,0,0,231.8,254,0,0,0,0,0,0,0,231.8,766,0,0.000654641,0.000111236,0.000325508,0.0161285,-4.30678e-05,0.00117317,0.00178902,-0.000230751,-0.0788247,0.00106033,0.000277405,0.0155108,-0.0215414,0.00132565,0.000848808,-0.00916962
18,3,0,0,0,0,0,0,231.8,254,0,0,0,0,0,0,0,231.8,766,0,0.000692788,0.00205673,0.00154621,0.0166626,-0.000615272,0.00109688,-0.000690537,3.62778e-05,0.0412238,0.000984039,0.00096405,0.0160067,-0.0205496,0.000410118,-0.000219307,-0.00886444
18,4,0,0,0,0,0,0,231.8,254,0,0,0,0,0,0,0,231.8,766,0,-0.000489769,-0.000956879,-0.000513725,0.0153274,-0.00408665,0.000143204,-4.2038e-05,-0.000917397,-0.00523918,0.000259247,-0.000599976,0.0136416,-0.021427,0.000791588,-0.000257454,-0.00977997
18,5,0,0,0,0,0,0,231.8,254,0,0,0,0,0,0,0,231.8,766,0,0.0005402,0.000645294,-5.59617e-05,0.0162811,-0.00492588,0.000333939,0.000377579,7.44248e-05,-0.0852715,0.0015181,0.000925903,0.0165789,-0.0221136,0.000295677,0.000543633,-0.00764374
18,6,0,0,0,0,0,0,231.8,254,0,0,0,0,0,0,0,231.8,766,0,0.000235024,0.000797882,0.00055439,0.0163574,-0.00740543,0.000829849,0.000644607,-1.86916e-06,-0.0344979,0.000259247,0.00096405,0.0128405,-0.0209311,0.000753441,0.00126843,-0.00825409
18,7,0,0,0,0,0,0,231.8,254,0,0,0,0,0,0,0,231.8,766,0,0.000769082,0.000607147,0.000821419,0.0164337,-0.014043,0.000715408,0.00117867,-0.000574074,-0.011686,0.000984039,0.000697021,0.0115435,-0.0201682,0.00124935,0.000352898,-0.00840668
18,8,0,0,0,0,0,0,231.8,254,0,0,0,0,0,0,0,231.8,766,0,-0.000184593,-0.000537262,-0.000246697,0.0161285,-0.0144626,0.000486526,0.000148697,-0.000307045,0.0393546,3.03648e-05,1.03759e-05,0.0125735,-0.0213126,0.000410118,0.000543633,-0.00901703
18,9,0,0,0,0,0,0,231.8,254,0,0,0,0,0,0,0,231.8,766,0,0.00130314,0.00106491,0.000630684,0.0157852,-0.00896946,0.00128761,0.00148384,0.000608482,-0.0528848,0.000602569,0.000925903,0.0130694,-0.0207785,0.00224117,0.00115398,-0.00840668
19,0,0,0,0,0,0,0,231.8,254,0,0,0,0,0,0,0,231.8,766,0,0.00237125,0.000759735,0.000783272,0.0167389,-0.00477329,0.00159279,0.000759048,0.000646629,-0.000585251,0.00186142,0.000887756,0.0162356,-0.0205115,0.00113491,0.000276604,-0.00836853
19,1,0,0,0,0,0,0,231.8,254,0,0,0,0,0,0,0,231.8,766,0,8.2436e-05,0.000797882,0.000478096,0.0167007,0.0029324,0.000257645,0.000759048,-0.000268898,0.0471366,0.000755157,0.000544433,0.0166552,-0.020397,0.000562706,0.00130657,-0.00833038
19,2,0,0,0,0,0,0,231.8,254,0,0,0,0,0,0,0,231.8,766,0,-7.01519e-05,0.000607147,0.000401802,0.0157852,0.00514492,0.000639114,0.000911636,-0.000154457,-0.0425088,0.00140366,-0.000752564,0.0138705,-0.02116,0.000867882,-0.00018116,-0.00894073
19,3,0,0,0,0,0,0,231.8,254,0,0,0,0,0,0,0,231.8,766,0,0.00015873,3.49423e-05,0.000439949,0.0155182,0.0106381,-0.000200119,0.000415726,-0.000574074,0.00883705,-4.59291e-05,0.000735168,0.010628,-0.0214651,-0.00023838,-0.000333748,-0.00943665
19,4,0,0,0,0,0,0,231.8,254,0,0,0,0,0,0,0,231.8,766,0,0.000502053,0.00018753,-0.000170403,0.0156707,0.0143002,0.000105057,0.00098793,0.000227013,0.0666679,0.000297394,0.000429993,0.0126879,-0.0225714,0.00117306,0.000124016,-0.00951294
19,5,0,0,0,0,0,0,231.8,254,0,0,0,0,0,0,0,231.8,766,0,0.000235024,-0.000117646,0.000249214,0.0153274,0.0133465,0.000600967,0.000873489,-0.000230751,-0.0391137,-0.000274811,1.03759e-05,0.0133746,-0.0218848,0.000829735,-0.000257454,-0.00901703
19,6,0,0,0,0,0,0,231.8,254,0,0,0,0,0,0,0,231.8,766,0,0.000997963,3.49423e-05,0.00112659,0.0166244,0.0131176,0.00151649,0.00163643,0.000417748,0.0141395,0.000526275,-0.000218506,0.0118106,-0.0202444,0.00159267,0.00164989,-0.00772003
19,7,0,0,0,0,0,0,231.8,254,0,0,0,0,0,0,0,231.8,766,0,0.000769082,0.000836029,0.00173695,0.0168151,0.0122784,0.000867996,0.000797195,0.000646629,0.0781501,0.000945892,0.0016507,0.0134509,-0.0211218,0.000944176,0.00069622,-0.00951294
19,8,0,0,0,0,0,0,231.8,254,0,0,0,0,0,0,0,231.8,766,0,0.000273171,0.000454559,0.000363655,0.0155944,0.0107144,2.87627e-05,0.000148697,-4.00161e-05,-0.0389993,0.000602569,0.000162964,0.0146334,-0.0211981,0.000677147,-0.000219307,-0.0101996
19,9,0,0,0,0,0,0,231.8,254,0,0,0,0,0,0,0,231.8,766,0,0.000921669,0.00106491,0.000630684,0.0166626,0.0104092,0.000677261,0.00060646,0.000608482,-0.0289285,-7.78213e-06,-0.000180359,0.0152819,-0.0213507,0.000982323,0.00161175,-0.00836853
20,0,0,0,0,0,0,0,231.8,254,0,0,0,0,0,0,0,231.8,766,0,0.000311318,-0.000422821,0.000859566,0.0170059,0.00598415,0.000715408,0.000568314,-0.00129887,-0.00455254,0.0015181,0.000735168,0.0176471,-0.0211981,0.000715294,0.000543633,-0.00779633
20,1,0,0,0,0,0,0,231.8,254,0,0,0,0,0,0,0,231.8,766,0,0.000769082,-0.000613556,0.00101215,0.0169677,0.00709042,0.00102058,0.00060646,-0.000154457,0.0454581,-7.78213e-06,0.00142181,0.0184481,-0.0209692,0.00159267,0.00134472,-0.00905518
20,2,0,0,0,0,0,0,231.8,254,0,0,0,0,0,0,0,231.8,766,0,0.00115055,0.000683441,0.000668831,0.017044,0.00529751,0.000715408,0.00106422,0.000379601,0.0192893,-0.000122223,0.00058258,0.0160067,-0.0215033,0.00109676,0.000772514,-0.00813965
20,3,0,0,0,0,0,0,231.8,254,0,0,0,0,0,0,0,231.8,766,0,0.000578347,0.000797882,0.000439949,0.01548,0.00277981,0.000143204,-0.000957565,0.000646629,-0.0335824,0.000564422,-0.000180359,0.014519,-0.0225714,0.00102047,-0.00056263,-0.00821594
20,4,0,0,0,0,0,0,231.8,254,0,0,0,0,0,0,0,231.8,766,0,0.000311318,3.49423e-05,0.000287361,0.0156326,0.000643578,0.000486526,0.000339432,-0.000154457,0.0571311,0.00109848,-0.000599976,0.0127642,-0.0212363,0.00117306,0.000658073,-0.00787262
20,5,0,0,0,0,0,0,231.8,254,0,0,0,0,0,0,0,231.8,766,0,0.000997963,0.000111236,9.66262e-05,0.0158996,0.000185814,0.000257645,0.000377579,-4.00161e-05,0.0160468,0.000526275,-0.000104065,0.0147097,-0.0213889,0.00147823,-0.000295601,-0.00901703
20,6,0,0,0,0,0,0,231.8,254,0,0,0,0,0,0,0,231.8,766,0,-0.000108299,3.49423e-05,0.000287361,0.0148697,-0.00248447,0.000524673,0.000415726,0.00076107,-0.0291955,0.000564422,-0.00143921,0.0161212,-0.021427,-4.76455e-05,0.000124016,-0.00916962
20,7,0,0,0,0,0,0,231.8,254,0,0,0,0,0,0,0,231.8,766,0,0.000349465,0.00190414,-9.41086e-05,0.0159759,-0.00385777,0.000219498,0.000949783,-0.000230751,0.0709403,-0.000198517,0.000620727,0.0146334,-0.0231055,0.00105862,-0.000905952,-0.00863556
20,8,0,0,0,0,0,0,231.8,254,0,0,0,0,0,0,0,231.8,766,0,0.000463906,0.000569,0.00116474,0.0166244,-0.00401035,0.00136391,0.00102608,-0.00011631,0.024401,0.00132736,0.000735168,0.0137942,-0.0201682,0.00117306,0.000543633,-0.00878815
20,9,0,0,0,0,0,0,231.8,254,0,0,0,0,0,0,0,231.8,766,0,0.000425759,0.00018753,-0.000590019,0.0163955,-0.00160709,0.000906143,0.000759048,0.000532188,-0.0338494,-0.000274811,0.00115479,0.0102084,-0.0218085,-9.49856e-06,0.00130657,-0.00905518
21,0,0,0,0,0,0,0,231.8,254,0,0,0,0,0,0,0,231.8,766,0,-0.000451622,-0.000346527,0.000516243,0.0160522,0.00155911,0.000906143,0.000797195,0.000150719,0.0736106,0.000449982,0.00096405,0.00952175,-0.0206641,0.00105862,0.00058178,-0.00829224
21,1,0,0,0,0,0,0,231.8,254,0,0,0,0,0,0,0,231.8,766,0,-0.000375328,0.000416412,-9.41086e-05,0.0155563,0.00560268,0.000524673,-0.000347214,-0.000421486,0.0289787,-0.000312958,-0.000714417,0.00963619,-0.0223807,6.67954e-05,0.000734367,-0.0101614
21,2,0,0,0,0,0,0,231.8,254,0,0,0,0,0,0,0,231.8,766,0,0.000730935,0.0012175,5.84793e-05,0.0164337,0.00773891,0.000410232,0.000186844,0.000532188,-0.0527322,0.00102219,0.000773315,0.0112765,-0.0213889,0.000906029,0.000543633,-0.00798706
21,3,0,0,0,0,0,0,231.8,254,0,0,0,0,0,0,0,231.8,766,0,4.4289e-05,-0.000537262,0.00108845,0.0163574,0.00323757,0.00094429,0.00049202,0.00026516,-0.00707024,-0.000122223,0.000391846,0.0130313,-0.0214651,0.00102047,0.000925102,-0.00844482
21,4,0,0,0,0,0,0,231.8,254,0,0,0,0,0,0,0,231.8,766,0,0.0011124,0.00163712,0.000592537,0.0162429,0.0028561,0.000257645,0.000568314,0.00118069,0.0212348,0.0002211,-0.000180359,0.0179141,-0.0215796,0.000753441,0.00176434,-0.00913147
21,5,0,0,0,0,0,0,231.8,254,0,0,0,0,0,0,0,231.8,766,0,0.000921669,0.000340118,0.000249214,0.0161666,0.00243649,-9.38424e-06,0.00102608,7.44248e-05,0.144373,0.000831451,-0.000371094,0.0155108,-0.0217703,0.000295677,0.000314751,-0.00894073
21,6,0,0,0,0,0,0,231.8,254,0,0,0,0,0,0,0,231.8,766,0,0.000578347,0.00198044,0.00120289,0.0162811,0.000338402,0.00163094,0.000530167,0.000494041,0.158144,0.00193771,0.000658874,0.0153201,-0.0205115,0.00124935,0.00115398,-0.00905518
21,7,0,0,0,0,0,0,231.8,254,0,0,0,0,0,0,0,231.8,766,0,0.000769082,0.00117935,-5.59617e-05,0.0168533,-0.000577125,0.00140205,0.00117867,0.000684776,0.130526,0.00102219,0.000811462,0.0178759,-0.0207785,0.00212673,0.00199322,-0.00833038
21,8,0,0,0,0,0,0,231.8,254,0,0,0,0,0,0,0,231.8,766,0,0.000578347,0.00102676,0.000859566,0.0161666,-0.000157509,0.00109688,0.000949783,0.000684776,0.0419868,-0.000122223,1.03759e-05,0.0162738,-0.0216559,0.000867882,0.00172619,-0.00825409
21,9,0,0,0,0,0,0,231.8,254,0,0,0,0,0,0,0,231.8,766,0,0.000349465,0.000874176,0.00166065,0.0170822,0.00419125,0.00113502,-3.89107e-06,0.000341454,-0.102209,0.000869598,0.00153625,0.01738,-0.0210074,0.00124935,0.00252728,-0.00943665
22,0,0,0,0,0,0,0,231.8,254,0,0,0,0,0,0,0,231.8,766,0,0.000311318,0.000797882,-0.000361137,0.0169296,0.00945553,0.00136391,0.000530167,0.000570335,-0.0245797,3.03648e-05,0.000391846,0.0186389,-0.0211981,0.000639,0.00176434,-0.00813965
22,1,0,0,0,0,0,0,231.8,254,0,0,0,0,0,0,0,231.8,766,0,0.00107426,-4.13517e-05,0.000134773,0.0155944,0.00434383,0.00102058,0.00125496,-0.000421486,0.0365699,0.000793304,-0.000828858,0.0168841,-0.0213126,0.000753441,0.000619926,-0.00871185
22,2,0,0,0,0,0,0,231.8,254,0,0,0,0,0,0,0,231.8,766,0,0.000578347,0.00129379,0.000859566,0.0154419,0.00190243,0.00109688,0.000873489,0.000875511,-0.0806557,0.000907745,0.00046814,0.0145953,-0.0208929,0.00174526,0.00138287,-0.00871185
22,3,0,0,0,0,0,0,231.8,254,0,0,0,0,0,0,0,231.8,766,0,0.000235024,0.00095047,-9.41086e-05,0.015747,0.00300869,-0.000200119,-0.000309067,0.000379601,-0.021032,0.000411835,-0.000104065,0.015549,-0.0228384,0.000562706,0.000734367,-0.00848297
22,4,0,0,0,0,0,0,231.8,254,0,0,0,0,0,0,0,231.8,766,0,-0.00022274,-0.000117646,-5.59617e-05,0.0159378,0.000262108,0.000639114,-0.000156479,7.44248e-05,0.0495017,-0.000389252,-0.000180359,0.0142138,-0.0215033,-0.000657997,0.000734367,-0.00897888
22,5,0,0,0,0,0,0,231.8,254,0,0,0,0,0,0,0,231.8,766,0,0.000730935,-4.13517e-05,-0.000513725,0.0158233,-0.00278965,0.00056282,0.00011055,0.000379601,-0.0710046,-0.000770722,0.000658874,0.014519,-0.0219611,0.00117306,0.00115398,-0.00901703
22,6,0,0,0,0,0,0,231.8,254,0,0,0,0,0,0,0,231.8,766,0,0.000463906,0.000492706,0.00108845,0.0154037,-0.00820652,0.000410232,0.00102608,0.000570335,-0.0575387,0.000488129,0.000391846,0.0135272,-0.0213507,0.000715294,0.00172619,-0.0093222
22,7,0,0,0,0,0,0,231.8,254,0,0,0,0,0,0,0,231.8,766,0,0.00015873,-0.00030838,2.03323e-05,0.0167389,-0.00565067,0.000105057,0.000720901,0.000646629,-0.0285088,0.000106659,0.00046814,0.0153964,-0.0208548,-9.49856e-06,0.00153545,-0.00833038
22,8,0,0,0,0,0,0,231.8,254,0,0,0,0,0,0,0,231.8,766,0,0.000311318,0.000149383,0.000821419,0.0160141,-0.00866428,0.000600967,-0.000232773,-0.000268898,0.0265754,0.00117477,0.00107849,0.0144809,-0.021427,0.000371971,0.00164989,-0.00951294
22,9,0,0,0,0,0,0,231.8,254,0,0,0,0,0,0,0,231.8,766,0,8.2436e-05,0.000874176,-0.000284843,0.0158233,-0.00687138,0.000410232,0.000339432,0.000837364,-0.00291222,-0.000579987,-0.0015155,0.0123828,-0.0215414,0.000143089,0.00149731,-0.00909332
23,0,0,0,0,0,0,0,231.8,254,0,0,0,0,0,0,0,231.8,766,0,0.0005402,0.00106491,0.000668831,0.0158996,-0.00881687,0.000219498,0.000911636,0.00133327,-0.0494897,-0.000389252,-0.000218506,0.0137942,-0.0219992,0.00136379,0.00172619,-0.00699524
23,1,0,0,0,0,0,0,231.8,254,0,0,0,0,0,0,0,231.8,766,0,0.00107426,0.000530853,0.000439949,0.0162811,-0.0100757,0.000867996,-0.000194626,0.000494041,0.0453819,0.000526275,0.00104034,0.0144809,-0.0207404,0.000791588,8.58689e-05,-0.00775818
23,2,0,0,0,0,0,0,231.8,254,0,0,0,0,0,0,0,231.8,766,0,0.0011124,0.00117935,0.00112659,0.0170822,-0.00473515,0.00102058,0.00114052,0.000722923,0.00406868,3.03648e-05,0.00153625,0.0165026,-0.0216177,0.0025845,0.000619926,-0.00806335
23,3,0,0,0,0,0,0,231.8,254,0,0,0,0,0,0,0,231.8,766,0,0.000273171,0.000569,-0.000551872,0.0158996,-0.00553623,0.000867996,0.000301285,-7.81631e-05,-0.0408685,0.000106659,0.00058258,0.0160067,-0.0209692,-0.000467262,0.000162163,-0.00882629
23,4,0,0,0,0,0,0,231.8,254,0,0,0,0,0,0,0,231.8,766,0,0.00015873,0.00106491,0.00127918,0.0168533,-0.000882301,0.00155464,0.000224991,-0.000650368,0.0623573,0.000869598,-0.000485535,0.0158541,-0.0208929,0.000639,0.000162163,-0.00840668
23,5,0,0,0,0,0,0,231.8,254,0,0,0,0,0,0,0,231.8,766,0,0.000807228,0.000530853,0.000478096,0.0160141,0.000643578,0.00102058,0.000415726,0.000684776,0.016352,0.000755157,0.00119293,0.014519,-0.0210837,0.000600853,0.000925102,-0.00836853
23,6,0,0,0,0,0,0,231.8,254,0,0,0,0,0,0,0,231.8,766,0,0.000273171,0.000416412,-0.000132256,0.0153274,-0.00126377,0.000829849,0.00049202,0.00133327,-0.0390374,-8.40761e-05,-2.77711e-05,0.0153582,-0.0212744,0.00025753,0.000658073,-0.00749115
23,7,0,0,0,0,0,0,231.8,254,0,0,0,0,0,0,0,231.8,766,0,-3.20049e-05,-0.00019394,-0.000666313,0.0145263,-0.000996742,-0.000429001,-4.2038e-05,0.000150719,0.0701392,-0.000579987,1.03759e-05,0.0129931,-0.0215796,0.000181236,0.000391045,-0.00920776
23,8,0,0,0,0,0,0,231.8,254,0,0,0,0,0,0,0,231.8,766,0,6.14207e-06,0.000378265,0.000287361,0.0160904,-0.00191227,0.000600967,0.000873489,0.000112572,0.0252784,0.000602569,0.00058258,0.0124591,-0.0217703,0.000753441,-0.000638924,-0.00962738
23,9,0,0,0,0,0,0,231.8,254,0,0,0,0,0,0,0,231.8,766,0,0.000387612,0.000149383,-5.59617e-05,0.0154419,-0.00202671,0.000791702,0.00060646,0.000150719,-0.0553643,0.000373688,-0.000905151,0.0140612,-0.0218466,0.000295677,0.0022221,-0.00787262
24,0,0,0,0,0,0,0,231.8,254,0,0,0,0,0,0,0,231.8,766,0,0.00122685,0.000645294,0.000478096,0.0163955,-0.00355259,0.00105873,0.000377579,0.000417748,-0.00840538,0.000831451,0.000811462,0.0142138,-0.0218085,0.000982323,0.000429192,-0.00813965
24,1,0,0,0,0,0,0,231.8,254,0,0,0,0,0,0,0,231.8,766,0,0.000616494,0.000874176,0.000439949,0.0164337,0.000376549,-4.75312e-05,0.000759048,0.000608482,0.0117362,0.000411835,0.000124817,0.0166934,-0.0202826,-4.76455e-05,0.000238457,-0.00859741
24,2,0,0,0,0,0,0,231.8,254,0,0,0,0,0,0,0,231.8,766,0,-0.000413475,-0.00019394,0.000363655,0.0151748,0.00155911,0.000372085,7.24029e-05,-0.00011631,0.0599921,-0.000885163,-0.000714417,0.0177233,-0.021427,0.000677147,0.00103954,-0.00836853
24,3,0,0,0,0,0,0,231.8,254,0,0,0,0,0,0,0,231.8,766,0,8.2436e-05,0.000797882,0.000859566,0.0156707,0.00110134,0.00056282,0.000530167,-0.000535927,-0.0330483,0.000755157,0.000391846,0.0143664,-0.0202444,0.00124935,0.00103954,-0.00836853
24,4,0,0,0,0,0,0,231.8,254,0,0,0,0,0,0,0,231.8,766,0,0.000502053,7.30893e-05,-0.000361137,0.0160904,0.00201687,0.000181351,0.000568314,0.000532188,0.0131858,-0.000122223,1.03759e-05,0.0142138,-0.0215796,0.00025753,0.00203136,-0.00813965
24,5,0,0,0,0,0,0,231.8,254,0,0,0,0,0,0,0,231.8,766,0,8.2436e-05,0.00171341,0.000211067,0.015747,0.00152096,0.000715408,0.000720901,0.000341454,0.0611366,-0.000122223,0.00046814,0.0160449,-0.0211981,0.00102047,0.000391045,-0.00825409
24,6,0,0,0,0,0,0,231.8,254,0,0,0,0,0,0,0,231.8,766,0,0.000235024,0.000645294,0.000668831,0.015747,0.00171169,0.00109688,0.000911636,0.00148586,-0.0302636,0.000526275,-0.0002948,0.0150912,-0.0210455,0.00124935,0.00126843,-0.00806335
24,7,0,0,0,0,0,0,231.8,254,0,0,0,0,0,0,0,231.8,766,0,0.0011124,0.00129379,0.0010503,0.0163192,0.00422939,0.000715408,0.00129311,0.000799217,0.0191367,0.00071701,0.000429993,0.00925472,-0.0208929,0.000791588,0.00203136,-0.00710968
24,8,0,0,0,0,0,0,231.8,254,0,0,0,0,0,0,0,231.8,766,0,0.000959816,0.00110306,0.00131733,0.0169677,0.00548824,0.000524673,0.000263138,0.000455895,0.076319,0.000831451,0.00107849,0.014252,-0.0227621,0.00151638,0.00199322,-0.00749115
24,9,0,0,0,0,0,0,231.8,254,0,0,0,0,0,0,0,231.8,766,0,0.000578347,0.000797882,0.00101215,0.0157089,0.00525936,0.00105873,0.000415726,7.44248e-05,-0.0329339,0.000526275,0.00126923,0.016846,-0.0212363,0.000333824,-0.000295601,-0.00737671
25,0,0,0,0,0,0,0,231.8,254,0,0,0,0,0,0,0,231.8,766,0,0.000578347,-0.000422821,0.000363655,0.0163192,0.0110577,0.000219498,0.000568314,-1.86916e-06,0.0179923,-0.00115219,0.000620727,0.0164264,-0.0214651,0.000677147,0.00119213,-0.00966553
25,1,0,0,0,0,0,0,231.8,254,0,0,0,0,0,0,0,231.8,766,0,-7.01519e-05,0.000149383,0.000363655,0.0156326,0.0131176,-0.000390854,-4.2038e-05,-0.000535927,0.0819648,0.00102219,0.000239258,0.011658,-0.0218466,-0.000162086,-0.000104866,-0.00794891
25,2,0,0,0,0,0,0,231.8,254,0,0,0,0,0,0,0,231.8,766,0,0.00015873,0.000225677,-9.41086e-05,0.0154037,0.016856,0.000219498,0.000453873,-0.000383339,-0.0370538,0.000488129,-0.000332947,0.0106662,-0.0212744,0.000448265,0.00111584,-0.00867371
25,3,0,0,0,0,0,0,231.8,254,0,0,0,0,0,0,0,231.8,766,0,8.2436e-05,0.00018753,0.000249214,0.0155563,0.0183438,0.000333939,0.000835342,0.000684776,-0.0296914,0.000106659,0.000429993,0.0155871,-0.0209692,0.000562706,0.00123028,-0.0075293
25,4,0,0,0,0,0,0,231.8,254,0,0,0,0,0,0,0,231.8,766,0,0.00103611,0.000836029,0.000592537,0.0155563,0.0197171,0.00056282,0.000949783,0.000341454,-0.00169151,-4.59291e-05,-0.000943298,0.0188678,-0.0200537,0.000867882,0.000734367,-0.00791077
25,5,0,0,0,0,0,0,231.8,254,0,0,0,0,0,0,0,231.8,766,0,0.000349465,0.000721588,0.000706978,0.0162429,0.0213955,0.000257645,0.000415726,0.000646629,0.0815452,0.00128921,4.85228e-05,0.0143283,-0.0221899,2.86484e-05,0.00138287,-0.00855927
25,6,0,0,0,0,0,0,231.8,254,0,0,0,0,0,0,0,231.8,766,0,0.000845375,0.000645294,0.00055439,0.0169296,0.0195645,0.0014402,0.00175087,0.000722923,0.170275,0.0014418,0.000735168,0.00914028,-0.0211218,0.00136379,0.00115398,-0.00699524
25,7,0,0,0,0,0,0,231.8,254,0,0,0,0,0,0,0,231.8,766,0,0.00115055,0.001866,0.00166065,0.0158996,0.0206707,0.000715408,0.00121681,0.000379601,0.142847,0.000678863,0.00191772,0.0143664,-0.0206259,0.000677147,0.00119213,-0.00840668
25,8,0,0,0,0,0,0,231.8,254,0,0,0,0,0,0,0,231.8,766,0,0.00168461,0.00144638,0.000706978,0.0162811,0.0207089,0.00128761,0.000949783,0.00152401,0.10512,0.000526275,0.000391846,0.0118869,-0.0212363,2.86484e-05,0.000238457,-0.00878815
25,9,0,0,0,0,0,0,231.8,254,0,0,0,0,0,0,0,231.8,766,0,0.000463906,0.000301971,0.00131733,0.0167389,0.0186871,0.000448379,0.000949783,0.000646629,-0.0454079,0.000907745,0.0010022,0.0128405,-0.0210074,0.00105862,-0.00018116,-0.00897888
26,0,0,0,0,0,0,0,231.8,254,0,0,0,0,0,0,0,231.8,766,0,0.00134129,0.000607147,-0.000551872,0.0156326,0.015292,0.000791702,0.000453873,0.000112572,-0.0887048,-7.78213e-06,0.000773315,0.0140231,-0.0220755,0.000295677,0.00149731,-0.00886444
26,1,0,0,0,0,0,0,231.8,254,0,0,0,0,0,0,0,231.8,766,0,-0.00022274,0.000645294,0.00055439,0.0153274,0.0128888,0.000143204,-3.89107e-06,-0.00087925,0.0329078,-7.78213e-06,-0.000523682,0.0134127,-0.0218848,-0.000390968,-0.00018116,-0.00951294
26,2,0,0,0,0,0,0,231.8,254,0,0,0,0,0,0,0,231.8,766,0,0.0005402,0.000301971,0.000897713,0.0164337,0.0113629,0.000333939,0.000415726,0.000494041,-0.0207269,0.000755157,1.03759e-05,0.0159304,-0.0210455,0.00109676,0.000467339,-0.00913147
26,3,0,0,0,0,0,0,231.8,254,0,0,0,0,0,0,0,231.8,766,0,0.000196877,0.000111236,-0.000132256,0.0161285,0.00911221,0.000524673,0.000301285,-0.00011631,-0.0800454,-0.000122223,8.66698e-05,0.0148242,-0.0213507,0.000333824,0.00130657,-0.00905518
26,4,0,0,0,0,0,0,231.8,254,0,0,0,0,0,0,0,231.8,766,0,0.000769082,0.000912323,-1.78147e-05,0.015213,0.00689968,0.000715408,-0.000537949,-0.00049778,0.0404227,0.000945892,-2.77711e-05,0.0161212,-0.0225333,0.000715294,-0.00018116,-0.00913147
26,5,0,0,0,0,0,0,231.8,254,0,0,0,0,0,0,0,231.8,766,0,0.000273171,0.00110306,0.0010503,0.0159378,0.00281796,0.000639114,0.00114052,0.000570335,-0.00520103,-8.40761e-05,0.000315552,0.0110095,-0.0215796,0.000639,-0.000143013,-0.007453
26,6,0,0,0,0,0,0,231.8,254,0,0,0,0,0,0,0,231.8,766,0,0.000807228,0.000683441,0.000974007,0.0161285,-0.00126377,-0.00031456,0.000682754,-4.00161e-05,-0.0872552,0.00102219,0.000315552,0.0122683,-0.0222281,0.000906029,-6.6719e-05,-0.00783447
26,7,0,0,0,0,0,0,231.8,254,0,0,0,0,0,0,0,231.8,766,0,0.000463906,0.00140823,0.000897713,0.0167007,0.00365719,0.000867996,0.00011055,0.000341454,-0.0356805,0.00102219,0.000620727,0.00921657,-0.0215796,0.000448265,0.00123028,-0.00855927
26,8,0,0,0,0,0,0,231.8,254,0,0,0,0,0,0,0,231.8,766,0,-0.00022274,-0.000270233,0.000706978,0.0161285,0.00491604,0.000829849,0.000377579,-0.000154457,-0.012449,-0.000923309,0.00111664,0.0109332,-0.0212363,0.000867882,0.00107769,-0.00806335
26,9,0,0,0,0,0,0,231.8,254,0,0,0,0,0,0,0,231.8,766,0,0.000387612,-0.000422821,0.000783272,0.0156326,0.00300869,0.000448379,0.00049202,0.000150719,0.038935,0.000678863,-0.000561829,0.0142901,-0.0221136,0.000600853,-0.000486336,-0.00806335
27,0,0,0,0,0,0,0,231.8,254,0,0,0,0,0,0,0,231.8,766,0,0.000730935,0.000912323,0.000363655,0.0156326,0.00438198,-4.75312e-05,-0.000347214,-7.81631e-05,-0.0529229,-0.000732575,1.03759e-05,0.014252,-0.0221136,0.00105862,-0.00018116,-0.00936035
27,1,0,0,0,0,0,0,231.8,254,0,0,0,0,0,0,0,231.8,766,0,0.000578347,-0.000880585,0.00017292,0.0151748,0.00274166,0.00056282,0.000263138,0.000455895,-0.00237816,0.000106659,0.00058258,0.0121157,-0.0218085,0.000143089,0.00069622,-0.0093222
27,2,0,0,0,0,0,0,231.8,254,0,0,0,0,0,0,0,231.8,766,0,0.000654641,0.00133194,0.000706978,0.0150985,0.00194057,0.000715408,0.000148697,0.000227013,0.0475562,0.000678863,-0.000332947,0.0137179,-0.0221136,0.000448265,0.000467339,-0.00894073
27,3,0,0,0,0,0,0,231.8,254,0,0,0,0,0,0,0,231.8,766,0,0.000502053,-0.000460968,0.000401802,0.0158615,0.00720486,-8.56782e-05,0.000339432,0.0010281,-0.0433099,0.000335541,0.000506287,0.0147097,-0.0223044,0.000753441,9.57493e-06,-0.00913147
27,4,0,0,0,0,0,0,231.8,254,0,0,0,0,0,0,0,231.8,766,0,0.000730935,-4.13517e-05,0.000325508,0.0155944,0.00705227,0.000143204,0.000301285,-0.000459633,0.00864632,-0.000236664,-0.000485535,0.0161975,-0.0208929,-0.000467262,-0.00018116,-0.0075293
27,5,0,0,0,0,0,0,231.8,254,0,0,0,0,0,0,0,231.8,766,0,0.000807228,-0.000499115,0.000668831,0.0158996,0.00785336,0.000486526,0.000644607,0.000188866,0.0675071,-0.000618134,0.000658874,0.0141757,-0.0223425,-4.76455e-05,0.000734367,-0.00787262
27,6,0,0,0,0,0,0,231.8,254,0,0,0,0,0,0,0,231.8,766,0,0.00126499,0.000149383,0.00112659,0.0164337,0.0102566,0.000867996,0.00224678,0.000875511,-0.0412881,0.000945892,0.00134552,0.0128787,-0.0208167,0.00124935,0.000543633,-0.00981812
27,7,0,0,0,0,0,0,231.8,254,0,0,0,0,0,0,0,231.8,766,0,0.000235024,0.000111236,0.000592537,0.0157852,0.00693783,0.000486526,-0.000499802,0.000646629,0.0141395,-0.00115219,-0.000447388,0.0144809,-0.022991,-0.000696144,0.000658073,-0.00920776
27,8,0,0,0,0,0,0,231.8,254,0,0,0,0,0,0,0,231.8,766,0,0.000502053,0.000263824,-0.000170403,0.0149078,0.00689968,-0.000238266,0.000186844,0.00144772,0.079409,-7.78213e-06,-0.000218506,0.0149005,-0.0221136,0.000753441,0.00203136,-0.0105811
27,9,0,0,0,0,0,0,231.8,254,0,0,0,0,0,0,0,231.8,766,0,0.000463906,0.000530853,0.000516243,0.0168914,0.00937923,0.00117317,0.000644607,0.00125698,-0.0397622,0.00205215,0.000849609,0.0168841,-0.0205878,0.00117306,-0.000333748,-0.00684265
28,0,0,0,0,0,0,0,231.8,254,0,0,0,0,0,0,0,231.8,766,0,0.000349465,0.000225677,0.000974007,0.0152893,0.00556454,2.87627e-05,-0.000118332,7.44248e-05,-0.029081,0.000755157,0.000353699,0.0187533,-0.0222662,0.000181236,-6.6719e-05,-0.00920776
28,1,0,0,0,0,0,0,231.8,254,0,0,0,0,0,0,0,231.8,766,0,0.000997963,0.000759735,0.000363655,0.0162811,0.00266537,0.000257645,0.00129311,0.000455895,-0.00325554,0.000564422,0.000239258,0.0158541,-0.0204352,-0.000200233,0.00069622,-0.00836853
28,2,0,0,0,0,0,0,231.8,254,0,0,0,0,0,0,0,231.8,766,0,0.000807228,0.00117935,0.000706978,0.0162811,0.00232204,0.000410232,0.000797195,-0.00011631,0.0509513,0.000831451,-0.000523682,0.0161593,-0.0210455,0.00109676,0.000391045,-0.0093985
28,3,0,0,0,0,0,0,231.8,254,0,0,0,0,0,0,0,231.8,766,0,0.000578347,0.00106491,-5.59617e-05,0.0171585,0.00380978,0.000791702,0.000911636,0.000837364,0.0174583,0.00071701,0.000697021,0.0172656,-0.0204733,0.0018597,0.00134472,-0.00936035
28,4,0,0,0,0,0,0,231.8,254,0,0,0,0,0,0,0,231.8,766,0,0.000463906,-0.000727997,0.000287361,0.0152893,0.00102505,0.000753555,0.00156013,-0.00011631,-0.0330483,0.000297394,4.85228e-05,0.0157397,-0.0223044,0.00155453,0.000925102,-0.00871185
28,5,0,0,0,0,0,0,231.8,254,0,0,0,0,0,0,0,231.8,766,0,0.000311318,0.00102676,0.00093586,0.0162048,0.000910606,0.000639114,0.000759048,0.000455895,0.061251,0.000449982,0.000544433,0.0179904,-0.0210455,0.000944176,0.000619926,-0.00882629
28,6,0,0,0,0,0,0,231.8,254,0,0,0,0,0,0,0,231.8,766,0,0.000578347,-7.94986e-05,5.84793e-05,0.0166626,-0.00175968,0.000524673,0.000568314,0.000455895,0.0136054,-0.000236664,-0.000104065,0.0166171,-0.021427,0.00132565,0.000772514,-0.00764374
28,7,0,0,0,0,0,0,231.8,254,0,0,0,0,0,0,0,231.8,766,0,-0.000108299,-0.00103317,-9.41086e-05,0.0157089,-0.00561253,0.000677261,7.24029e-05,0.000112572,-0.0301873,-0.00054184,-6.59181e-05,0.0149005,-0.0230292,-0.000543556,-0.000104866,-0.00848297
28,8,0,0,0,0,0,0,231.8,254,0,0,0,0,0,0,0,231.8,766,0,0.000730935,0.000721588,0.00017292,0.0160141,-0.00477329,0.000906143,0.000224991,7.44248e-05,0.071627,-0.000579987,0.000124817,0.0172656,-0.0213126,0.000906029,0.000276604,-0.00867371
28,9,0,0,0,0,0,0,231.8,254,0,0,0,0,0,0,0,231.8,766,0,0.000692788,0.00125565,0.000745125,0.0160141,-0.00576511,0.000829849,0.000759048,0.000989952,0.0243247,0.000907745,-0.000256653,0.0140612,-0.0216559,0.000982323,-0.000677071,-0.00867371
29,0,0,0,0,0,0,0,231.8,254,0,0,0,0,0,0,0,231.8,766,0,0.000387612,0.000569,0.000287361,0.0164718,-0.00595585,0.000600967,0.000415726,0.000150719,-0.0348031,0.000182953,0.000353699,0.0127642,-0.0218466,0.000944176,0.000619926,-0.00897888
29,1,0,0,0,0,0,0,231.8,254,0,0,0,0,0,0,0,231.8,766,0,0.000502053,-0.000575409,-0.000590019,0.0159759,-0.00835911,-0.000657883,7.24029e-05,-0.000917397,0.0742973,-0.000198517,0.000353699,0.0132983,-0.0223425,0.000181236,-0.000371895,-0.00951294
29,2,0,0,0,0,0,0,231.8,254,0,0,0,0,0,0,0,231.8,766,0,0.000578347,0.000416412,0.00116474,0.0155563,-0.0140812,-0.000429001,0.000911636,0.000913658,0.0290168,0.00113663,-0.000409241,0.0160067,-0.0210455,-0.000886879,-0.000448189,-0.00852112
29,3,0,0,0,0,0,0,231.8,254,0,0,0,0,0,0,0,231.8,766,0,0.000502053,0.000378265,0.000363655,0.0158996,-0.0135089,-0.000543442,0.000644607,0.000799217,-0.0548684,-4.59291e-05,0.000429993,0.018143,-0.0221136,0.000448265,-0.000333748,-0.00821594
29,4,0,0,0,0,0,0,231.8,254,0,0,0,0,0,0,0,231.8,766,0,0.00141758,0.000301971,0.0010503,0.0165863,-0.00854984,0.00102058,3.42559e-05,0.000570335,-0.00771873,0.00071701,0.00199402,0.0189441,-0.021427,0.00105862,0.000925102,-0.00779633
29,5,0,0,0,0,0,0,231.8,254,0,0,0,0,0,0,0,231.8,766,0,-0.000146446,0.000225677,0.000363655,0.0156326,-0.00790134,0.00117317,0.000682754,-0.000154457,0.0210822,0.000602569,0.00107849,0.0169986,-0.0212363,0.000600853,0.00115398,-0.00798706
29,6,0,0,0,0,0,0,231.8,254,0,0,0,0,0,0,0,231.8,766,0,0.00160831,0.000530853,0.000859566,0.0163955,-0.00790134,0.000410232,0.000148697,0.00171474,0.145174,0.00140366,0.000277405,0.0122683,-0.0215796,0.000753441,-2.8572e-05,-0.00859741
29,7,0,0,0,0,0,0,231.8,254,0,0,0,0,0,0,0,231.8,766,0,-0.000833091,0.000797882,0.00093586,0.0170822,-0.00576511,0.00147835,0.00106422,0.000608482,0.157992,0.000411835,0.000735168,0.0102465,-0.0207785,0.00201229,0.00203136,-0.0081015
29,8,0,0,0,0,0,0,231.8,254,0,0,0,0,0,0,0,231.8,766,0,0.00115055,0.0011412,0.000211067,0.0159378,-0.00187412,0.000867996,0.000720901,0.000951805,0.130183,0.0020903,-0.000905151,0.0112002,-0.0218085,0.000829735,0.000658073,-0.00886444
29,9,0,0,0,0,0,0,231.8,254,0,0,0,0,0,0,0,231.8,766,0,0.000921669,0.000225677,0.00150806,0.0167389,0.00255093,0.000867996,0.00205605,0.000379601,0.039965,0.00167068,0.000697021,0.0110858,-0.0208167,0.00166897,0.0010014,-0.00733856
30,0,0,0,0,0,0,0,231.8,254,0,0,0,0,0,0,0,231.8,766,0,0.000845375,0.0012175,0.00101215,0.0166244,0.0107525,0.000677261,0.00163643,0.00106625,-0.103658,0.000793304,0.000315552,0.0139468,-0.0216559,0.00136379,0.000886955,-0.00905518
30,1,0,0,0,0,0,0,231.8,254,0,0,0,0,0,0,0,231.8,766,0,0.0018372,0.000301971,0.000401802,0.0161285,0.0117443,0.000181351,-0.00027092,0.000875511,-0.02519,0.0002211,-0.000790711,0.0108187,-0.0222662,-8.57925e-05,0.000276604,-0.00936035
30,2,0,0,0,0,0,0,231.8,254,0,0,0,0,0,0,0,231.8,766,0,0.000311318,-0.000384674,0.000363655,0.0166626,0.0132702,0.000600967,0.000797195,0.00114254,0.0362266,-0.000122223,0.000773315,0.0137179,-0.0212363,0.000333824,0.000391045,-0.00798706
30,3,0,0,0,0,0,0,231.8,254,0,0,0,0,0,0,0,231.8,766,0,0.00149387,0.000797882,0.000897713,0.0163192,0.0147961,0.00117317,0.000873489,0.000799217,-0.0816476,0.00113663,0.00134552,0.0156253,-0.0211981,0.000753441,0.000886955,-0.00821594
30,4,0,0,0,0,0,0,231.8,254,0,0,0,0,0,0,0,231.8,766,0,0.000769082,0.000340118,2.03323e-05,0.0159378,0.0130413,0.000143204,0.000224991,0.000188866,-0.0209939,0.000259247,0.000277405,0.0176089,-0.0218848,-0.000162086,0.000314751,-0.00894073
30,5,0,0,0,0,0,0,231.8,254,0,0,0,0,0,0,0,231.8,766,0,0.00126499,0.000569,0.00017292,0.0165863,0.0107525,0.000219498,0.000263138,0.000722923,0.0496543,0.00109848,0.00107849,0.0146334,-0.0209692,0.000791588,0.000619926,-0.00848297
30,6,0,0,0,0,0,0,231.8,254,0,0,0,0,0,0,0,231.8,766,0,0.000807228,0.000836029,0.000668831,0.0164718,0.00773891,0.00124947,3.42559e-05,0.000875511,-0.0719582,0.000411835,0.000773315,0.0145572,-0.021694,0.00144009,0.00130657,-0.00974182
30,7,0,0,0,0,0,0,231.8,254,0,0,0,0,0,0,0,231.8,766,0,0.00164646,0.000874176,0.000859566,0.0161285,0.00274166,0.00117317,0.000911636,0.000150719,-0.0573098,0.000640716,-0.000447388,0.0141375,-0.0218466,0.000982323,0.00103954,-0.00737671
30,8,0,0,0,0,0,0,231.8,254,0,0,0,0,0,0,0,231.8,766,0,-0.000299034,0.001866,0.000630684,0.0164337,0.000948753,0.00124947,7.24029e-05,0.000684776,-0.0295007,0.000373688,0.000773315,0.0210803,-0.0219992,0.000753441,0.000543633,-0.00913147
30,9,0,0,0,0,0,0,231.8,254,0,0,0,0,0,0,0,231.8,766,0,0.000425759,-0.000117646,0.000287361,0.0158615,-0.000500832,0.000181351,0.000797195,0.00026516,0.0258887,0.000755157,0.000506287,0.0163119,-0.0228003,0.00102047,0.00058178,-0.00920776
31,0,0,0,0,0,0,0,231.8,254,0,0,0,0,0,0,0,231.8,766,0,0.00015873,0.000492706,0.000363655,0.0154037,-0.00416294,2.87627e-05,0.000224991,-0.000307045,-0.00241631,0.000678863,-0.000523682,0.0115817,-0.0218466,-0.000200233,0.000276604,-0.00863556
31,1,0,0,0,0,0,0,231.8,254,0,0,0,0,0,0,0,231.8,766,0,0.000387612,-0.000155793,0.000592537,0.0162811,-0.00622288,-9.38424e-06,0.000263138,0.00121883,-0.0514733,-0.000618134,0.000735168,0.0149005,-0.0226096,0.000829735,-2.8572e-05,-0.00821594
31,2,0,0,0,0,0,0,231.8,254,0,0,0,0,0,0,0,231.8,766,0,0.000616494,0.000416412,0.000783272,0.0162811,-0.0053455,0.000677261,0.000797195,0.000913658,0.0447715,0.000984039,0.000201111,0.010628,-0.0210837,0.000600853,0.000429192,-0.0081015
31,3,0,0,0,0,0,0,231.8,254,0,0,0,0,0,0,0,231.8,766,0,0.0005402,0.00152267,0.000592537,0.0164337,0.0016354,0.000486526,0.000301285,0.00129513,0.00342018,0.000526275,0.00126923,0.010094,-0.0208167,0.00025753,0.00210766,-0.00844482
31,4,0,0,0,0,0,0,231.8,254,0,0,0,0,0,0,0,231.8,766,0,0.00198978,0.000607147,0.000859566,0.0173492,0.00152096,0.00056282,0.00117867,0.00076107,-0.0418984,0.00071701,0.00111664,0.0124591,-0.0212744,0.00197414,0.0022221,-0.00840668
31,5,0,0,0,0,0,0,231.8,254,0,0,0,0,0,0,0,231.8,766,0,0.000349465,0.00125565,0.000363655,0.0161285,0.00247463,0.00094429,0.000224991,0.000417748,0.0627387,-0.000465546,-0.000409241,0.0130694,-0.0203589,0.00102047,0.00069622,-0.00848297
31,6,0,0,0,0,0,0,231.8,254,0,0,0,0,0,0,0,231.8,766,0,0.000463906,0.00133194,0.000821419,0.0165863,0.00564083,0.000906143,0.000835342,0.00110439,0.0159705,0.000793304,-0.000256653,0.0157397,-0.0211218,0.0012112,0.00149731,-0.00806335
31,7,0,0,0,0,0,0,231.8,254,0,0,0,0,0,0,0,231.8,766,0,0.000807228,0.000492706,0.00116474,0.0168914,0.00392422,0.000372085,0.000644607,0.000684776,-0.0400674,0.00117477,0.000773315,0.0166171,-0.0223044,0.000448265,0.00115398,-0.00863556
31,8,0,0,0,0,0,0,231.8,254,0,0,0,0,0,0,0,231.8,766,0,0.000196877,-0.000422821,9.66262e-05,0.0156326,0.00518307,0.000257645,-0.000194626,-0.00011631,0.0701774,0.00125107,-0.000752564,0.015816,-0.021694,0.00025753,0.00107769,-0.0081778
31,9,0,0,0,0,0,0,231.8,254,0,0,0,0,0,0,0,231.8,766,0,0.000616494,0.000759735,2.03323e-05,0.0161285,0.00400051,0.000410232,-0.000156479,0.000417748,0.024668,0.000259247,-0.000409241,0.0138324,-0.0215796,-0.000314674,-0.000753365,-0.00966553
32,0,0,0,0,0,0,0,231.8,254,0,0,0,0,0,0,0,231.8,766,0,0.000616494,0.000301971,0.000401802,0.0159378,0.00174984,-0.000467148,0.000568314,0.00129513,-0.0554025,0.000106659,0.00046814,0.0148242,-0.021427,0.000333824,0.000772514,-0.00886444
32,1,0,0,0,0,0,0,231.8,254,0,0,0,0,0,0,0,231.8,766,0,6.14207e-06,0.000797882,0.000401802,0.0171203,0.00140652,0.000372085,-8.0185e-05,0.000608482,-0.00913017,-0.000351105,0.00058258,0.017113,-0.0221899,0.000753441,0.00138287,-0.0101996
32,2,0,0,0,0,0,0,231.8,254,0,0,0,0,0,0,0,231.8,766,0,0.000997963,0.000378265,0.000630684,0.0161666,0.00266537,0.000982437,0.000911636,-7.81631e-05,0.00898964,0.000297394,0.000849609,0.0193255,-0.0215033,0.000448265,0.00126843,-0.00798706
32,3,0,0,0,0,0,0,231.8,254,0,0,0,0,0,0,0,231.8,766,0,0.00107426,-4.13517e-05,0.000630684,0.0159378,0.00300869,0.000486526,0.000377579,0.00026516,0.0612891,0.000182953,0.000239258,0.0176471,-0.0209311,0.000715294,-6.6719e-05,-0.00871185
32,4,0,0,0,0,0,0,231.8,254,0,0,0,0,0,0,0,231.8,766,0,0.000921669,0.000874176,0.000478096,0.0163574,0.00419125,0.00132576,0.000911636,0.00125698,-0.033735,-0.00016037,0.00134552,0.0180285,-0.0225714,0.00151638,0.00168804,-0.00924591
32,5,0,0,0,0,0,0,231.8,254,0,0,0,0,0,0,0,231.8,766,0,0.000883522,0.000836029,0.00055439,0.0160141,0.00598415,0.000448379,0.00049202,3.62778e-05,0.0137962,0.00159439,0.000315552,0.0200122,-0.02116,0.000639,0.000848808,-0.00772003
32,6,0,0,0,0,0,0,231.8,254,0,0,0,0,0,0,0,231.8,766,0,0.000463906,0.000225677,0.000821419,0.0164337,0.00949368,0.000524673,-3.89107e-06,-1.86916e-06,0.0611747,-0.000503693,0.000620727,0.0166171,-0.0218466,0.00025753,0.00058178,-0.00779633
32,7,0,0,0,0,0,0,231.8,254,0,0,0,0,0,0,0,231.8,766,0,0.000769082,0.000263824,0.000592537,0.0160141,0.0054501,-8.56782e-05,0.00098793,-1.86916e-06,-0.0312554,0.000564422,0.000315552,0.0144427,-0.0222662,0.000906029,0.00069622,-0.0081778
32,8,0,0,0,0,0,0,231.8,254,0,0,0,0,0,0,0,231.8,766,0,0.000654641,0.00152267,0.000745125,0.0160522,0.00483974,0.000639114,-0.000690537,-4.00161e-05,0.018946,0.00113663,-2.77711e-05,0.0140231,-0.0211981,0.000677147,0.00107769,-0.00894073
32,9,0,0,0,0,0,0,231.8,254,0,0,0,0,0,0,0,231.8,766,0,0.000730935,0.000378265,0.000134773,0.0162811,0.0054501,0.000715408,-0.000919418,7.44248e-05,0.0770057,0.000488129,0.0010022,0.0147097,-0.0223425,0.00025753,-0.00102039,-0.00882629
33,0,0,0,0,0,0,0,231.8,254,0,0,0,0,0,0,0,231.8,766,0,0.000692788,0.000454559,0.000897713,0.0165481,0.00369534,0.00113502,0.00121681,0.000608482,-0.0344979,0.0014418,0.00115479,0.0155108,-0.0204352,0.000906029,0.000314751,-0.00909332
33,1,0,0,0,0,0,0,231.8,254,0,0,0,0,0,0,0,231.8,766,0,0.000616494,-7.94986e-05,-0.000933342,0.0155182,0.00461086,0.000639114,0.000224991,0.00026516,0.0185264,-0.000312958,-0.000142212,0.0135653,-0.0221518,0.000753441,0.00069622,-0.00840668
33,2,0,0,0,0,0,0,231.8,254,0,0,0,0,0,0,0,231.8,766,0,0.000730935,0.000874176,0.000211067,0.0164718,0.00239834,0.000410232,0.000644607,0.000188866,0.0836814,0.000755157,0.000201111,0.013489,-0.0217322,0.000410118,0.000505486,-0.00909332
33,3,0,0,0,0,0,0,231.8,254,0,0,0,0,0,0,0,231.8,766,0,6.14207e-06,0.000988617,0.000439949,0.0161285,0.00312313,0.00140205,0.000720901,0.00026516,-0.0372826,-0.000236664,0.000773315,0.0135653,-0.0216177,0.00132565,0.00161175,-0.00867371
33,4,0,0,0,0,0,0,231.8,254,0,0,0,0,0,0,0,231.8,766,0,0.0011887,0.000416412,2.03323e-05,0.0160904,0.00430569,0.000715408,7.24029e-05,-0.000345192,-0.0284707,0.000526275,-0.00113403,0.0156253,-0.0217322,0.000371971,0.000467339,-0.00867371
33,5,0,0,0,0,0,0,231.8,254,0,0,0,0,0,0,0,231.8,766,0,0.000654641,0.00144638,0.000630684,0.0166244,0.000262108,-0.000161972,0.000530167,0.000341454,-0.00272148,0.000793304,0.000353699,0.0126117,-0.0205496,-9.49856e-06,0.000314751,-0.00863556
33,6,0,0,0,0,0,0,231.8,254,0,0,0,0,0,0,0,231.8,766,0,6.14207e-06,0.000263824,0.000592537,0.0159759,-0.00237003,0.000143204,0.000720901,-0.000841103,0.0812782,0.000488129,0.00187958,0.0124209,-0.0212744,0.00117306,0.000772514,-0.00951294
33,7,0,0,0,0,0,0,231.8,254,0,0,0,0,0,0,0,231.8,766,0,0.0005402,0.000111236,0.000439949,0.0163192,-0.000996742,0.000829849,0.000873489,-7.81631e-05,0.171381,0.000373688,0.000544433,0.0125735,-0.0206259,0.000791588,0.000848808,-0.00890259
33,8,0,0,0,0,0,0,231.8,254,0,0,0,0,0,0,0,231.8,766,0,0.000311318,0.000721588,-5.59617e-05,0.0154419,-0.00431553,0.00056282,0.00011055,-0.00133701,0.142466,3.03648e-05,0.000239258,0.0129168,-0.0211218,0.000333824,-0.000638924,-0.0103522
33,9,0,0,0,0,0,0,231.8,254,0,0,0,0,0,0,0,231.8,766,0,0.000616494,0.000301971,0.000668831,0.0159378,-0.00271336,0.000181351,-0.000385361,-1.86916e-06,0.10306,-4.59291e-05,0.000391846,0.0130694,-0.0210074,0.000867882,-6.6719e-05,-0.00905518
34,0,0,0,0,0,0,0,231.8,254,0,0,0,0,0,0,0,231.8,766,0,0.000349465,-0.000918732,-0.000437431,0.015213,0.00155911,0.000524673,-4.2038e-05,0.000379601,-0.0466668,-0.000923309,0.000658874,0.0107425,-0.0217703,0.000333824,0.000886955,-0.00909332
34,1,0,0,0,0,0,0,231.8,254,0,0,0,0,0,0,0,231.8,766,0,0.000807228,0.00102676,-0.000857048,0.0152511,0.00869259,0.000333939,0.000453873,-0.000459633,-0.089544,-0.000694428,-0.000561829,0.010895,-0.0220755,-0.000162086,0.000505486,-0.00886444
34,2,0,0,0,0,0,0,231.8,254,0,0,0,0,0,0,0,231.8,766,0,0.00107426,-0.000499115,0.000783272,0.0167007,0.00773891,0.000486526,0.000339432,0.000150719,0.0328315,0.000678863,0.000239258,0.0107806,-0.0207404,-0.000276527,0.000162163,-0.00916962
34,3,0,0,0,0,0,0,231.8,254,0,0,0,0,0,0,0,231.8,766,0,0.0005402,0.000492706,2.03323e-05,0.0161666,0.0102948,-0.000581589,-0.000537949,0.000799217,-0.0215661,0.000945892,8.66698e-05,0.0127642,-0.0213889,0.000181236,-0.000104866,-0.00890259
34,4,0,0,0,0,0,0,231.8,254,0,0,0,0,0,0,0,231.8,766,0,0.000921669,0.000416412,0.000249214,0.0162811,0.0106381,0.000791702,0.00011055,7.44248e-05,-0.0801217,0.000869598,0.000773315,0.0130694,-0.0209311,-0.000123939,0.00126843,-0.00962738
34,5,0,0,0,0,0,0,231.8,254,0,0,0,0,0,0,0,231.8,766,0,0.00134129,0.000912323,0.00208027,0.0167389,0.00586971,0.00094429,0.00163643,-0.000154457,0.0413001,0.00159439,0.00096405,0.011391,-0.0198248,0.000944176,0.00138287,-0.00665192
34,6,0,0,0,0,0,0,231.8,254,0,0,0,0,0,0,0,231.8,766,0,0.000807228,0.000683441,0.00124104,0.0165863,0.00331387,0.000524673,0.00060646,0.000913658,-0.00554436,0.00071701,0.000391846,0.0114672,-0.0206641,0.00105862,0.00119213,-0.00829224
34,7,0,0,0,0,0,0,231.8,254,0,0,0,0,0,0,0,231.8,766,0,8.2436e-05,0.000416412,0.000287361,0.015747,0.00125393,0.000372085,-3.89107e-06,7.44248e-05,-0.0877892,-4.59291e-05,-0.000104065,0.0101321,-0.0211981,0.000448265,0.000162163,-0.00871185
34,8,0,0,0,0,0,0,231.8,254,0,0,0,0,0,0,0,231.8,766,0,0.000959816,0.000645294,0.00135548,0.0160522,0.00213131,0.00140205,0.00129311,0.00026516,-0.0343072,0.000564422,8.66698e-05,0.0108569,-0.0213126,0.000982323,0.0010014,-0.00794891
34,9,0,0,0,0,0,0,231.8,254,0,0,0,0,0,0,0,231.8,766,0,0.0017609,0.00102676,0.000211067,0.0156707,0.00380978,0.00113502,0.00110237,0.000951805,-0.0118768,0.000335541,0.00111664,0.0121539,-0.0210074,0.000982323,0.000810661,-0.0099707
35,0,0,0,0,0,0,0,231.8,254,0,0,0,0,0,0,0,231.8,766,0,0.000578347,0.000225677,0.00127918,0.0155563,0.000796166,0.000333939,0.000377579,0.000722923,0.0398887,0.000106659,-0.000638123,0.0187533,-0.0209311,0.000677147,9.57493e-06,-0.00859741
35,1,0,0,0,0,0,0,231.8,254,0,0,0,0,0,0,0,231.8,766,0,0.000578347,0.00110306,0.00120289,0.0164718,0.00190243,0.00105873,0.00121681,0.00118069,-0.0538003,0.000373688,0.00096405,0.0217288,-0.0203589,0.0012875,0.00161175,-0.00852112
35,2,0,0,0,0,0,0,231.8,254,0,0,0,0,0,0,0,231.8,766,0,0.00134129,0.00106491,0.00158436,0.0161666,0.00632748,0.000829849,0.000873489,0.000303307,-8.93399e-05,0.0021666,0.0010022,0.0193637,-0.0201682,0.0018597,0.0010014,-0.00791077
35,3,0,0,0,0,0,0,231.8,254,0,0,0,0,0,0,0,231.8,766,0,0.000425759,0.000912323,0.00131733,0.0162429,0.011134,0.00109688,0.000530167,0.00110439,0.0462974,0.000869598,0.00107849,0.0135653,-0.0198248,-0.00107761,0.00161175,-0.00718597
35,4,0,0,0,0,0,0,231.8,254,0,0,0,0,0,0,0,231.8,766,0,0.000502053,0.00125565,0.000745125,0.0162048,0.012965,0.00124947,0.00159828,0.000417748,-0.0449883,0.00136551,0.000735168,0.0158923,-0.0208167,0.000829735,-6.6719e-05,-0.00936035
35,5,0,0,0,0,0,0,231.8,254,0,0,0,0,0,0,0,231.8,766,0,0.000578347,0.000683441,0.00146992,0.0164337,0.0162075,0.00155464,0.000759048,0.000417748,0.00975258,0.00117477,-0.000638123,0.0165408,-0.0215414,0.000448265,-2.8572e-05,-0.00970367
35,6,0,0,0,0,0,0,231.8,254,0,0,0,0,0,0,0,231.8,766,0,0.00015873,0.00137009,-0.000132256,0.015747,0.013728,0.000715408,-8.0185e-05,0.000684776,0.06827,6.85118e-05,0.000620727,0.0179141,-0.0213126,0.000982323,0.0015736,-0.00951294
35,7,0,0,0,0,0,0,231.8,254,0,0,0,0,0,0,0,231.8,766,0,0.000959816,0.000225677,0.000821419,0.0159759,0.0156735,0.00105873,0.00152199,0.0010281,-0.040754,0.00132736,0.000697021,0.015549,-0.0210837,0.00136379,0.00069622,-0.00783447
35,8,0,0,0,0,0,0,231.8,254,0,0,0,0,0,0,0,231.8,766,0,0.000120583,0.000683441,0.000211067,0.0158615,0.0151013,0.000181351,0.000377579,-0.000421486,0.0133002,0.000297394,-0.00101959,0.0127261,-0.0212363,0.000410118,-2.8572e-05,-0.00920776
35,9,0,0,0,0,0,0,231.8,254,0,0,0,0,0,0,0,231.8,766,0,0.000273171,-0.00030838,0.000325508,0.0143356,0.0167797,-9.38424e-06,0.000530167,-0.000154457,0.0795615,0.000449982,0.000239258,0.011391,-0.021427,0.00117306,0.000658073,-0.00829224
36,0,0,0,0,0,0,0,231.8,254,0,0,0,0,0,0,0,231.8,766,0,0.000807228,0.000530853,0.00116474,0.0160904,0.0162075,0.000867996,0.000377579,0.000303307,-0.0402581,0.00147995,0.000849609,0.0162356,-0.0219229,0.000562706,-0.000219307,-0.00791077
36,1,0,0,0,0,0,0,231.8,254,0,0,0,0,0,0,0,231.8,766,0,0.000349465,0.000569,0.000668831,0.0163574,0.0187252,0.00094429,0.00106422,0.000188866,-0.0298058,0.000411835,-0.00121033,0.015816,-0.0210455,0.000791588,9.57493e-06,-0.00859741
36,2,0,0,0,0,0,0,231.8,254,0,0,0,0,0,0,0,231.8,766,0,0.000120583,0.00125565,0.00120289,0.0163955,0.0190304,0.000524673,0.000453873,0.000608482,-0.00588768,0.00125107,0.000429993,0.0136035,-0.0212363,0.00117306,0.000925102,-0.00890259
36,3,0,0,0,0,0,0,231.8,254,0,0,0,0,0,0,0,231.8,766,0,0.000425759,0.00144638,-0.000284843,0.0165863,0.0240658,0.000982437,-0.000347214,-0.000535927,0.0466788,0.000831451,-0.000828858,0.0115054,-0.0207022,0.000829735,0.000772514,-0.00802521
36,4,0,0,0,0,0,0,231.8,254,0,0,0,0,0,0,0,231.8,766,0,6.14207e-06,-0.000422821,5.84793e-05,0.0154037,0.0262402,0.000181351,0.000911636,-0.000535927,0.0198234,0.000259247,-0.000218506,0.0136416,-0.0213507,0.000448265,0.000391045,-0.00733856
36,5,0,0,0,0,0,0,231.8,254,0,0,0,0,0,0,0,231.8,766,0,-0.000527916,0.000607147,0.000325508,0.0153656,0.0238751,0.00113502,0.000797195,-7.81631e-05,-0.0352227,0.000449982,0.000277405,0.015816,-0.0213889,0.000906029,0.000162163,-0.00977997
36,6,0,0,0,0,0,0,231.8,254,0,0,0,0,0,0,0,231.8,766,0,0.000196877,0.00102676,0.000974007,0.0144882,0.0256298,-8.56782e-05,0.000530167,0.00076107,0.0595344,-0.000732575,-0.00155365,0.0151294,-0.0221899,0.000104942,0.000963249,-0.00863556
36,7,0,0,0,0,0,0,231.8,254,0,0,0,0,0,0,0,231.8,766,0,-0.000146446,3.49423e-05,-0.000399284,0.0155563,0.0284909,-0.00031456,-0.000194626,0.000455895,0.0157035,3.03648e-05,0.000429993,0.0157779,-0.0217322,-0.00023838,0.00020031,-0.00886444
36,8,0,0,0,0,0,0,231.8,254,0,0,0,0,0,0,0,231.8,766,0,0.00015873,-0.000270233,0.000783272,0.0155182,0.0223111,0.000524673,-0.000385361,-0.000459633,-0.0311028,0.00071701,1.03759e-05,0.0120395,-0.0216559,0.000524559,-0.000143013,-0.00783447
36,9,0,0,0,0,0,0,231.8,254,0,0,0,0,0,0,0,231.8,766,0,0.000463906,0.000301971,0.000439949,0.0155563,0.0165127,0.000410232,0.000263138,-0.000154457,0.0705207,0.0002211,0.000429993,0.0141757,-0.0206641,0.000448265,0.000963249,-0.00958923
37,0,0,0,0,0,0,0,231.8,254,0,0,0,0,0,0,0,231.8,766,0,0.000196877,0.000836029,0.00055439,0.0161666,0.0113629,0.000791702,0.000835342,0.000722923,0.0236762,0.00170883,0.000697021,0.014786,-0.0204733,0.00189785,0.00149731,-0.00787262
37,1,0,0,0,0,0,0,231.8,254,0,0,0,0,0,0,0,231.8,766,0,6.14207e-06,0.00018753,0.00124104,0.0158615,0.00785336,0.00094429,0.000377579,0.000494041,-0.0357568,0.000640716,0.000239258,0.0155871,-0.0211981,0.000410118,0.00123028,-0.00791077
37,2,0,0,0,0,0,0,231.8,254,0,0,0,0,0,0,0,231.8,766,0,0.000845375,-0.000117646,-0.00150555,0.0149078,0.000414696,-4.75312e-05,-0.000347214,-1.86916e-06,0.0742591,-0.000694428,0.000201111,0.0168841,-0.0228384,0.0012112,0.0010014,-0.00894073
37,3,0,0,0,0,0,0,231.8,254,0,0,0,0,0,0,0,231.8,766,0,-0.00071865,-0.000499115,-1.78147e-05,0.0152893,-0.00187412,0.00102058,0.000568314,-0.000154457,0.0284446,6.85118e-05,-0.00220215,0.0163882,-0.0208167,0.000448265,-0.000371895,-0.00867371
37,4,0,0,0,0,0,0,231.8,254,0,0,0,0,0,0,0,231.8,766,0,0.000692788,0.000263824,0.000630684,0.0159759,-0.00916019,0.000333939,0.000453873,0.00026516,-0.0541055,0.00071701,0.000353699,0.0150912,-0.022457,0.000791588,0.000772514,-0.00878815
37,5,0,0,0,0,0,0,231.8,254,0,0,0,0,0,0,0,231.8,766,0,0.000502053,0.000340118,0.000401802,0.0158996,-0.0154544,0.000181351,0.000568314,-0.000802956,-0.00832909,0.00163254,0.00058258,0.0128024,-0.0205496,0.00109676,8.58689e-05,-0.00840668
37,6,0,0,0,0,0,0,231.8,254,0,0,0,0,0,0,0,231.8,766,0,0.000845375,7.30893e-05,0.000706978,0.0158996,-0.0135471,0.00163094,0.000759048,-0.000459633,0.02051,0.000182953,-0.0002948,0.0112002,-0.0208167,0.000867882,0.000886955,-0.00829224
37,7,0,0,0,0,0,0,231.8,254,0,0,0,0,0,0,0,231.8,766,0,0.000921669,0.000340118,0.00139362,0.0167389,-0.0143863,0.000600967,0.00205605,0.000303307,0.146166,0.00197586,0.00107849,0.0138324,-0.0218848,0.00140194,0.000848808,-0.00928406
37,8,0,0,0,0,0,0,231.8,254,0,0,0,0,0,0,0,231.8,766,0,0.000921669,0.000301971,0.000974007,0.0172348,-0.0165607,0.00128761,7.24029e-05,0.00076107,0.159975,0.00125107,0.00046814,0.0137179,-0.0199011,0.00178341,-0.000295601,-0.00836853
37,9,0,0,0,0,0,0,231.8,254,0,0,0,0,0,0,0,231.8,766,0,0.000311318,3.49423e-05,-5.59617e-05,0.0167389,-0.0201847,0.00102058,0.000148697,0.00125698,0.132128,0.000488129,0.00149811,0.014519,-0.0207785,0.00178341,0.00153545,-0.00733856
38,0,0,0,0,0,0,0,231.8,254,0,0,0,0,0,0,0,231.8,766,0,0.00103611,0.000759735,0.000974007,0.0167007,-0.0198413,0.00189796,0.0019416,0.00114254,0.041262,0.00189957,0.000353699,0.0131839,-0.0213507,0.00102047,0.000619926,-0.00783447
38,1,0,0,0,0,0,0,231.8,254,0,0,0,0,0,0,0,231.8,766,0,0.000463906,0.00167526,0.00146992,0.0164718,-0.0142337,0.00128761,0.000759048,0.000303307,-0.104192,0.00121292,0.000620727,0.0157016,-0.0203589,0.0012112,0.000772514,-0.0093222
38,2,0,0,0,0,0,0,231.8,254,0,0,0,0,0,0,0,231.8,766,0,0.000616494,0.000492706,0.000439949,0.0161666,-0.0131275,0.000524673,0.00114052,0.00137142,-0.0246941,0.000678863,0.000811462,0.0187915,-0.021694,0.000944176,0.00111584,-0.00852112
38,3,0,0,0,0,0,0,231.8,254,0,0,0,0,0,0,0,231.8,766,0,-3.20049e-05,0.000416412,0.000859566,0.0170822,-0.012212,0.00136391,0.00129311,0.000188866,0.0355399,0.00102219,-0.000523682,0.015816,-0.0211981,0.00113491,0.000467339,-0.00855927
38,4,0,0,0,0,0,0,231.8,254,0,0,0,0,0,0,0,231.8,766,0,0.000692788,0.000721588,5.84793e-05,0.0155182,-0.0125934,0.00102058,0.00133125,0.000188866,-0.0827157,-0.000465546,-0.000752564,0.0139468,-0.0218848,0.000524559,0.000886955,-0.00737671
38,5,0,0,0,0,0,0,231.8,254,0,0,0,0,0,0,0,231.8,766,0,0.000692788,-0.000613556,0.000439949,0.0155944,-0.0108768,-0.000657883,0.000301285,0.000341454,-0.0218331,-4.59291e-05,-0.0002948,0.0110095,-0.0225333,2.86484e-05,0.000276604,-0.00794891
38,6,0,0,0,0,0,0,231.8,254,0,0,0,0,0,0,0,231.8,766,0,-0.000108299,0.00125565,0.000592537,0.01651,-0.0100376,0.00132576,0.00114052,0.000532188,0.0499595,0.00117477,-0.0002948,0.0131839,-0.0210837,0.0012112,0.00153545,-0.00730042
38,7,0,0,0,0,0,0,231.8,254,0,0,0,0,0,0,0,231.8,766,0,0.000387612,0.000530853,0.00127918,0.0171203,-0.00660435,0.000410232,0.000911636,0.000646629,-0.0728356,0.00170883,0.000887756,0.016083,-0.0216559,0.000600853,0.00111584,-0.00737671
38,8,0,0,0,0,0,0,231.8,254,0,0,0,0,0,0,0,231.8,766,0,0.000311318,0.000378265,0.00135548,0.0172729,-0.00748173,0.000867996,0.00129311,0.000150719,-0.0580346,0.000907745,-0.000180359,0.0153582,-0.0208548,0.000677147,0.000619926,-0.00813965
38,9,0,0,0,0,0,0,231.8,254,0,0,0,0,0,0,0,231.8,766,0,-0.000566063,0.000988617,0.00093586,0.0163955,-0.00935093,0.000753555,0.000682754,0.000112572,-0.0307977,0.000488129,0.00058258,0.0139087,-0.0210455,0.000753441,0.00134472,-0.00947479
39,0,0,0,0,0,0,0,231.8,254,0,0,0,0,0,0,0,231.8,766,0,0.000273171,0.000111236,0.000211067,0.0158233,-0.0072147,0.000677261,0.000682754,0.000646629,0.0263084,-0.000427399,0.000124817,0.0123065,-0.0206259,0.00113491,0.000619926,-0.00916962
39,1,0,0,0,0,0,0,231.8,254,0,0,0,0,0,0,0,231.8,766,0,-0.000108299,0.000988617,0.000211067,0.0159378,-0.00313297,0.000448379,0.00060646,0.000227013,-0.0037133,0.000411835,0.000735168,0.0110095,-0.021694,-4.76455e-05,0.00119213,-0.0081778
39,2,0,0,0,0,0,0,231.8,254,0,0,0,0,0,0,0,231.8,766,0,0.000273171,0.000263824,0.00108845,0.0154037,-0.000653419,0.000524673,0.000797195,0.000379601,-0.0515115,-0.000389252,-0.000447388,0.0133364,-0.0213126,0.000181236,0.00130657,-0.00863556
39,3,0,0,0,0,0,0,231.8,254,0,0,0,0,0,0,0,231.8,766,0,0.000273171,0.000149383,-5.59617e-05,0.0157089,-0.00179783,0.000829849,0.000949783,3.62778e-05,0.0450767,-0.000122223,0.000620727,0.0127642,-0.0205878,0.000371971,9.57493e-06,-0.00955109
39,4,0,0,0,0,0,0,231.8,254,0,0,0,0,0,0,0,231.8,766,0,-0.000184593,0.000416412,-0.00032299,0.0163955,0.00167355,-0.000619736,0.000263138,0.000303307,0.00273354,0.000564422,-0.000256653,0.0137561,-0.0219992,-0.000200233,0.00069622,-0.00829224
39,5,0,0,0,0,0,0,231.8,254,0,0,0,0,0,0,0,231.8,766,0,0.00115055,-0.000384674,0.000134773,0.0155182,0.00430569,-4.75312e-05,-0.000461655,0.000303307,-0.0422036,0.000106659,-0.000180359,0.015816,-0.0236395,0.000600853,0.00145916,-0.00894073
39,6,0,0,0,0,0,0,231.8,254,0,0,0,0,0,0,0,231.8,766,0,-0.000909385,7.30893e-05,2.03323e-05,0.0155182,0.00926479,0.00121132,0.00049202,-0.00049778,0.0631202,0.000411835,1.03759e-05,0.0167315,-0.0212363,0.000295677,0.00123028,-0.00897888
39,7,0,0,0,0,0,0,231.8,254,0,0,0,0,0,0,0,231.8,766,0,0.000120583,-0.000232087,-0.000437431,0.0163192,0.00899776,0.000906143,0.000644607,0.000684776,0.0156654,-0.000198517,0.000124817,0.0178759,-0.0215796,0.000715294,0.0010014,-0.00955109
39,8,0,0,0,0,0,0,231.8,254,0,0,0,0,0,0,0,231.8,766,0,0.000311318,-0.000804291,-9.41086e-05,0.0164337,0.010104,-0.000161972,0.00102608,0.000646629,-0.040487,0.00128921,-0.000523682,0.0191348,-0.0217322,0.00113491,0.00115398,-0.0081015
39,9,0,0,0,0,0,0,231.8,254,0,0,0,0,0,0,0,231.8,766,0,0.00172276,0.000569,0.00116474,0.0165481,0.0128506,0.00113502,0.0013694,0.000913658,0.0716651,0.000869598,0.00123108,0.018143,-0.0218848,0.00147823,0.00130657,-0.00871185
40,0,0,0,0,0,0,0,231.8,254,0,0,0,0,0,0,0,231.8,766,0,0.00141758,0.00106491,0.000974007,0.0155944,0.00804409,0.00121132,0.00102608,0.000684776,0.0250114,0.00128921,0.000239258,0.0174945,-0.0212744,-9.49856e-06,0.00126843,-0.0081778
40,1,0,0,0,0,0,0,231.8,254,0,0,0,0,0,0,0,231.8,766,0,8.2436e-05,0.000492706,0.000668831,0.017044,0.0120114,0.000791702,0.000530167,0.000417748,-0.0561654,0.000259247,0.00107849,0.0173037,-0.0205878,0.000715294,-0.000448189,-0.00871185
40,2,0,0,0,0,0,0,231.8,254,0,0,0,0,0,0,0,231.8,766,0,0.00103611,0.000301971,0.000516243,0.0166244,0.0114773,-0.000429001,0.00114052,0.00026516,-0.00928276,0.000678863,8.66698e-05,0.0156634,-0.0215414,0.000333824,0.000429192,-0.0102377
40,3,0,0,0,0,0,0,231.8,254,0,0,0,0,0,0,0,231.8,766,0,0.000997963,0.000683441,0.000401802,0.0154419,0.0123928,0.000600967,0.000911636,-7.81631e-05,0.0136817,0.000182953,0.0010022,0.0163501,-0.0212363,0.000448265,0.0010014,-0.00844482
40,4,0,0,0,0,0,0,231.8,254,0,0,0,0,0,0,0,231.8,766,0,0.0005402,0.000912323,0.000745125,0.016777,0.0130795,0.00124947,0.00140755,0.00114254,0.0620521,-0.000656281,8.66698e-05,0.0128024,-0.0210837,0.00159267,0.00119213,-0.00718597
40,5,0,0,0,0,0,0,231.8,254,0,0,0,0,0,0,0,231.8,766,0,0.000502053,0.000683441,0.00093586,0.0161666,0.00827297,0.00132576,0.000835342,0.000532188,-0.0350701,0.000869598,0.00126923,0.0114672,-0.0219611,0.00182156,0.000619926,-0.00844482
40,6,0,0,0,0,0,0,231.8,254,0,0,0,0,0,0,0,231.8,766,0,0.00015873,0.000988617,0.000516243,0.0163192,0.00689968,0.000600967,-4.2038e-05,3.62778e-05,0.0144828,0.000526275,0.000353699,0.0133364,-0.0216177,0.000677147,-0.000524483,-0.00791077
40,7,0,0,0,0,0,0,231.8,254,0,0,0,0,0,0,0,231.8,766,0,0.000311318,-0.00118576,0.000478096,0.0161666,0.0066708,0.000257645,0.000339432,0.000684776,0.0615943,0.000449982,0.000353699,0.0126498,-0.0216559,0.000562706,0.000925102,-0.00966553
40,8,0,0,0,0,0,0,231.8,254,0,0,0,0,0,0,0,231.8,766,0,0.000387612,-3.20468e-06,0.000134773,0.0158615,0.00854,0.000219498,-3.89107e-06,0.000303307,-0.0311791,-0.00149551,-0.000256653,0.00925472,-0.0224188,0.00151638,0.00130657,-0.00897888
40,9,0,0,0,0,0,0,231.8,254,0,0,0,0,0,0,0,231.8,766,0,-0.000108299,0.00106491,-0.000132256,0.015213,0.0144528,0.000600967,-0.000156479,-0.00118443,0.0182594,0.000106659,1.03759e-05,0.010628,-0.0222281,0.000600853,0.000925102,-0.00897888
41,0,0,0,0,0,0,0,231.8,254,0,0,0,0,0,0,0,231.8,766,0,0.00153202,7.30893e-05,-0.000284843,0.0164718,0.016856,0.000867996,-0.000194626,0.000150719,0.0767768,0.000984039,0.000353699,0.0108569,-0.0205496,0.000410118,-2.8572e-05,-0.00852112
41,1,0,0,0,0,0,0,231.8,254,0,0,0,0,0,0,0,231.8,766,0,0.00137943,0.000645294,0.0010503,0.0168151,0.019183,0.000219498,0.00121681,0.000303307,-0.0338113,-0.00016037,0.000773315,0.0115817,-0.0206641,0.00025753,0.000467339,-0.00829224
41,2,0,0,0,0,0,0,231.8,254,0,0,0,0,0,0,0,231.8,766,0,0.000349465,-3.20468e-06,-1.78147e-05,0.0155944,0.0192974,0.000295792,3.42559e-05,-4.00161e-05,0.017916,0.000335541,-0.000104065,0.0110858,-0.0224951,0.000715294,0.00115398,-0.00916962
41,3,0,0,0,0,0,0,231.8,254,0,0,0,0,0,0,0,231.8,766,0,0.00103611,-0.000918732,-0.000551872,0.0158996,0.015292,0.000295792,0.000377579,-0.000154457,0.0834525,-0.000503693,-0.000752564,0.0103228,-0.021694,-0.000467262,0.00130657,-0.00875
41,4,0,0,0,0,0,0,231.8,254,0,0,0,0,0,0,0,231.8,766,0,0.00015873,0.000454559,0.000630684,0.0150604,0.017886,0.00121132,0.000911636,7.44248e-05,-0.0380837,0.000259247,-0.000599976,0.0148242,-0.0215414,0.000944176,0.00058178,-0.00756744
41,5,0,0,0,0,0,0,231.8,254,0,0,0,0,0,0,0,231.8,766,0,0.00145573,-0.00030838,0.000706978,0.0160904,0.0165127,0.000486526,0.000873489,0.00186733,-0.0287759,0.00113663,-0.000180359,0.0136035,-0.0210074,0.000753441,0.00134472,-0.00875
41,6,0,0,0,0,0,0,231.8,254,0,0,0,0,0,0,0,231.8,766,0,0.000311318,-7.94986e-05,0.00127918,0.0168533,0.0144909,-0.000581589,-4.2038e-05,0.000608482,-0.00218742,0.000335541,0.000124817,0.0165408,-0.0210837,0.000677147,0.00069622,-0.00829224
41,7,0,0,0,0,0,0,231.8,254,0,0,0,0,0,0,0,231.8,766,0,0.000120583,-0.000384674,2.03323e-05,0.0159378,0.0161694,0.000867996,0.000148697,0.000799217,0.08124,-0.000351105,0.000773315,0.0141757,-0.0211218,0.00105862,0.000848808,-0.00848297
41,8,0,0,0,0,0,0,231.8,254,0,0,0,0,0,0,0,231.8,766,0,0.000769082,0.000645294,0.000325508,0.0158615,0.0162838,0.000715408,0.000835342,0.000303307,0.17264,0.00071701,-6.59181e-05,0.0103991,-0.0212744,-0.000276527,0.000124016,-0.0081778
41,9,0,0,0,0,0,0,231.8,254,0,0,0,0,0,0,0,231.8,766,0,-0.000184593,0.00140823,0.00200397,0.0166244,0.018153,0.00113502,0.00152199,0.000913658,0.144526,0.00128921,-0.000218506,0.0173037,-0.0206259,0.0012875,0.00119213,-0.00840668
42,0,0,0,0,0,0,0,231.8,254,0,0,0,0,0,0,0,231.8,766,0,0.0011887,0.000874176,5.84793e-05,0.0171203,0.0185727,0.00155464,0.00098793,0.000684776,0.110689,0.00132736,-2.77711e-05,0.019707,-0.0217703,0.000333824,0.00119213,-0.00657562
42,1,0,0,0,0,0,0,231.8,254,0,0,0,0,0,0,0,231.8,766,0,0.00145573,0.000340118,0.000706978,0.0171203,0.0186108,0.000639114,0.00148384,0.000684776,-0.0541055,0.000602569,0.00161255,0.0211184,-0.0209692,0.000486412,0.000848808,-0.00848297
42,2,0,0,0,0,0,0,231.8,254,0,0,0,0,0,0,0,231.8,766,0,0.00145573,0.00110306,0.00173695,0.0168914,0.0196408,0.000257645,0.000568314,0.000875511,-0.089811,0.000488129,0.00115479,0.019974,-0.0211218,0.00136379,0.00153545,-0.00802521
42,3,0,0,0,0,0,0,231.8,254,0,0,0,0,0,0,0,231.8,766,0,0.000654641,0.00102676,0.00124104,0.0161666,0.0132702,0.000982437,0.00049202,0.000646629,0.0334037,0.000984039,0.000315552,0.0205844,-0.0207404,0.00159267,0.00187878,-0.00836853
42,4,0,0,0,0,0,0,231.8,254,0,0,0,0,0,0,0,231.8,766,0,0.000845375,0.00133194,-0.000170403,0.0155182,0.0091885,0.000867996,0.000949783,0.000875511,-0.0218331,0.00102219,-0.000752564,0.016083,-0.0213889,0.000295677,0.00149731,-0.00756744
42,5,0,0,0,0,0,0,231.8,254,0,0,0,0,0,0,0,231.8,766,0,0.000883522,0.000340118,0.00127918,0.01651,0.00300869,-4.75312e-05,0.000644607,0.000303307,-0.0798928,-0.00016037,0.000124817,0.0145572,-0.02116,0.000677147,0.00069622,-0.00833038
42,6,0,0,0,0,0,0,231.8,254,0,0,0,0,0,0,0,231.8,766,0,0.000196877,0.0012175,0.00055439,0.0160141,0.00171169,0.000143204,0.000759048,0.00118069,0.0404227,0.000831451,0.00142181,0.018143,-0.0208167,0.00113491,0.00123028,-0.00924591
42,7,0,0,0,0,0,0,231.8,254,0,0,0,0,0,0,0,231.8,766,0,0.000845375,0.000683441,0.00055439,0.0160141,-0.00179783,0.000600967,0.000263138,0.000799217,-0.00588768,-0.000312958,-2.77711e-05,0.0187915,-0.0213507,-0.000162086,0.000925102,-0.00894073
42,8,0,0,0,0,0,0,231.8,254,0,0,0,0,0,0,0,231.8,766,0,0.00103611,-7.94986e-05,-5.59617e-05,0.0159378,-0.00668064,0.000906143,0.000530167,-0.000421486,-0.0872552,0.000945892,0.000620727,0.0156253,-0.0212744,0.000639,0.00111584,-0.00974182
42,9,0,0,0,0,0,0,231.8,254,0,0,0,0,0,0,0,231.8,766,0,0.000349465,0.00148453,0.00116474,0.0154037,-0.0109912,0.00113502,0.00060646,3.62778e-05,-0.0359093,0.00128921,-0.000256653,0.0113528,-0.0208167,0.000371971,0.00130657,-0.00859741
43,0,0,0,0,0,0,0,231.8,254,0,0,0,0,0,0,0,231.8,766,0,0.000883522,0.000683441,0.000363655,0.0167389,-0.0136615,0.000524673,0.000720901,0.000684776,-0.0121056,0.000335541,0.000658874,0.0129931,-0.0202826,0.000371971,0.00134472,-0.00859741
43,1,0,0,0,0,0,0,231.8,254,0,0,0,0,0,0,0,231.8,766,0,0.000959816,0.00095047,0.000783272,0.0168914,-0.0159885,0.00124947,0.00129311,0.000379601,0.0407661,0.000373688,0.000697021,0.0104754,-0.0217322,0.00151638,0.000810661,-0.00977997
43,2,0,0,0,0,0,0,231.8,254,0,0,0,0,0,0,0,231.8,766,0,-0.000413475,-0.000270233,0.0010503,0.0166626,-0.0201847,-0.000238266,-0.0011483,0.000494041,-0.0548302,-0.000579987,0.00058258,0.0112002,-0.0216559,-0.000429115,0.00126843,-0.0081778
43,3,0,0,0,0,0,0,231.8,254,0,0,0,0,0,0,0,231.8,766,0,0.000463906,-0.00133835,-0.000895195,0.0163192,-0.022092,-0.000200119,0.00148384,-0.000268898,-0.00253075,0.00071701,0.00058258,0.0122683,-0.0218848,0.000944176,0.00020031,-0.00989441
43,4,0,0,0,0,0,0,231.8,254,0,0,0,0,0,0,0,231.8,766,0,0.0005402,-0.00019394,0.000897713,0.0149459,-0.025449,0.000448379,-0.000194626,0.000570335,0.0472892,0.000259247,-0.000981445,0.0112384,-0.0213889,-0.000200233,-0.000143013,-0.00768188
43,5,0,0,0,0,0,0,231.8,254,0,0,0,0,0,0,0,231.8,766,0,0.000654641,-0.00019394,-0.000246697,0.0165481,-0.021825,-8.56782e-05,0.000148697,0.000684776,-0.0444924,0.000373688,0.000506287,0.0111239,-0.0218466,0.000562706,-0.000143013,-0.00901703
43,6,0,0,0,0,0,0,231.8,254,0,0,0,0,0,0,0,231.8,766,0,0.00107426,0.000530853,0.000974007,0.0151748,-0.019231,0.000333939,0.00102608,0.000227013,0.00857002,0.00102219,-2.77711e-05,0.0127642,-0.0205115,0.000753441,0.00119213,-0.00783447
43,7,0,0,0,0,0,0,231.8,254,0,0,0,0,0,0,0,231.8,766,0,0.00237125,0.000797882,0.000745125,0.0157852,-0.0168659,0.00136391,0.000148697,0.00076107,0.0696815,0.00071701,0.000239258,0.013222,-0.0218466,0.000104942,0.00145916,-0.00825409
43,8,0,0,0,0,0,0,231.8,254,0,0,0,0,0,0,0,231.8,766,0,0.000654641,0.000721588,0.000401802,0.0156326,-0.0126316,0.000791702,0.000720901,0.000494041,-0.0412118,0.000945892,0.000887756,0.0147097,-0.0208929,0.000753441,0.00130657,-0.00794891
43,9,0,0,0,0,0,0,231.8,254,0,0,0,0,0,0,0,231.8,766,0,0.000807228,0.000263824,0.000211067,0.0158615,-0.0125553,0.000524673,-8.0185e-05,0.000989952,0.0146735,0.000526275,-0.000371094,0.0144427,-0.0213507,-0.00061985,0.000467339,-0.00787262
44,0,0,0,0,0,0,0,231.8,254,0,0,0,0,0,0,0,231.8,766,0,0.000845375,0.000645294,0.00101215,0.0163574,-0.00767246,0.00128761,0.000301285,0.000150719,0.079676,0.00178513,0.0015744,0.0131076,-0.0216559,0.00136379,0.000391045,-0.00768188
44,1,0,0,0,0,0,0,231.8,254,0,0,0,0,0,0,0,231.8,766,0,0.000730935,0.000874176,0.00120289,0.0161285,-0.00637547,0.00094429,0.00102608,0.000532188,-0.0412499,0.000564422,0.00111664,0.0133364,-0.0210455,0.000677147,-0.000448189,-0.00844482
44,2,0,0,0,0,0,0,231.8,254,0,0,0,0,0,0,0,231.8,766,0,0.0011124,0.00106491,0.000745125,0.0155944,-0.000882301,0.000372085,3.42559e-05,0.00114254,-0.027517,0.0002211,-6.59181e-05,0.0143283,-0.0219229,0.000753441,4.77219e-05,-0.0099707
44,3,0,0,0,0,0,0,231.8,254,0,0,0,0,0,0,0,231.8,766,0,0.00130314,0.000263824,0.000134773,0.0162429,0.000414696,0.000829849,0.000759048,0.000532188,-0.00439995,0.00117477,-0.00113403,0.018677,-0.0223044,0.00136379,0.000963249,-0.00722412
44,4,0,0,0,0,0,0,231.8,254,0,0,0,0,0,0,0,231.8,766,0,0.000502053,0.000340118,0.000249214,0.0153274,0.00506863,0.000600967,-3.89107e-06,0.000455895,0.0517142,0.00140366,1.03759e-05,0.0155871,-0.0215796,0.000600853,-0.000905952,-0.00848297
44,5,0,0,0,0,0,0,231.8,254,0,0,0,0,0,0,0,231.8,766,0,0.000845375,-3.20468e-06,0.000630684,0.0158233,0.00697597,0.000257645,0.0013694,0.000341454,0.0172675,0.000259247,-0.000332947,0.00708034,-0.0210074,0.000448265,0.000619926,-0.00852112
44,6,0,0,0,0,0,0,231.8,254,0,0,0,0,0,0,0,231.8,766,0,0.00214237,0.00095047,0.000706978,0.0163955,0.0060223,0.00117317,0.000835342,0.000951805,-0.0321328,0.00205215,0.000315552,0.00406673,-0.0195578,0.00105862,0.000314751,-0.00733856
44,7,0,0,0,0,0,0,231.8,254,0,0,0,0,0,0,0,231.8,766,0,0.000349465,0.00102676,0.00173695,0.0164337,0.00594601,0.000791702,0.00148384,-4.00161e-05,0.0635398,0.000678863,0.000239258,0.0152438,-0.0206641,0.000181236,0.00103954,-0.00794891
44,8,0,0,0,0,0,0,231.8,254,0,0,0,0,0,0,0,231.8,766,0,0.00130314,0.000378265,0.000249214,0.0163574,0.00468716,0.00185982,0.00144569,0.0010281,0.0145591,0.00125107,0.0016507,0.016083,-0.0204733,0.00170712,0.00134472,-0.00901703
44,9,0,0,0,0,0,0,231.8,254,0,0,0,0,0,0,0,231.8,766,0,0.00141758,0.000912323,0.000974007,0.0163192,0.00716671,0.000906143,0.00129311,0.000379601,-0.0307214,0.00109848,0.000735168,0.0176852,-0.0205115,0.000829735,-0.000295601,-0.00768188
45,0,0,0,0,0,0,0,231.8,254,0,0,0,0,0,0,0,231.8,766,0,0.00015873,0.000836029,0.000821419,0.0161285,0.00815853,-0.000161972,-0.000194626,0.000989952,0.0720847,0.000488129,0.00119293,0.0204318,-0.0221136,0.00163082,0.000848808,-0.0099707
45,1,0,0,0,0,0,0,231.8,254,0,0,0,0,0,0,0,231.8,766,0,0.00015873,0.000340118,0.000821419,0.0161285,0.00754818,0.000639114,0.000759048,3.62778e-05,0.0239051,0.0014418,0.000697021,0.0227206,-0.0212744,0.00113491,0.00126843,-0.00829224
45,2,0,0,0,0,0,0,231.8,254,0,0,0,0,0,0,0,231.8,766,0,0.000425759,0.000759735,0.000974007,0.0157852,0.00949368,0.000715408,0.000377579,-0.000154457,-0.0344979,0.000106659,-2.77711e-05,0.0218814,-0.0207022,0.000333824,-0.000295601,-0.00772003
45,3,0,0,0,0,0,0,231.8,254,0,0,0,0,0,0,0,231.8,766,0,0.000883522,0.000378265,0.000249214,0.0160141,0.00693783,-0.000238266,0.00110237,0.000379601,0.0755943,0.00128921,0.000315552,0.0177615,-0.0219611,0.000524559,-0.000219307,-0.00913147
45,4,0,0,0,0,0,0,231.8,254,0,0,0,0,0,0,0,231.8,766,0,6.14207e-06,0.000607147,0.00135548,0.0163192,0.00792965,0.000867996,0.000911636,0.000112572,0.0299323,0.0015181,0.000620727,0.01944,-0.02013,0.0012875,0.000810661,-0.00913147
45,5,0,0,0,0,0,0,231.8,254,0,0,0,0,0,0,0,231.8,766,0,0.000578347,0.000721588,0.000439949,0.0165481,0.0118588,0.000677261,0.000911636,0.000684776,-0.0555932,0.00109848,0.000391846,0.0176089,-0.0212744,0.00109676,0.00142101,-0.00840668
45,6,0,0,0,0,0,0,231.8,254,0,0,0,0,0,0,0,231.8,766,0,0.000425759,0.000645294,0.000630684,0.0166626,0.00922665,0.00094429,0.00110237,0.000188866,-0.00905388,0.00117477,0.000544433,0.0161212,-0.0207404,0.000448265,0.000314751,-0.00875
45,7,0,0,0,0,0,0,231.8,254,0,0,0,0,0,0,0,231.8,766,0,0.000845375,0.000988617,0.000630684,0.0156707,0.0122403,0.000333939,0.000720901,0.000341454,0.0215018,-0.00130478,-0.000485535,0.016083,-0.0215796,0.000143089,0.00107769,-0.00871185
45,8,0,0,0,0,0,0,231.8,254,0,0,0,0,0,0,0,231.8,766,0,0.000578347,0.000301971,2.03323e-05,0.0152893,0.0125454,0.000219498,-8.0185e-05,0.000227013,0.147311,0.000869598,0.00058258,0.0121157,-0.0224188,0.000486412,-0.000295601,-0.00840668
45,9,0,0,0,0,0,0,231.8,254,0,0,0,0,0,0,0,231.8,766,0,-0.000375328,3.49423e-05,0.000821419,0.0169677,0.0126599,0.00109688,0.000797195,3.62778e-05,0.160319,0.000564422,0.00104034,0.0147097,-0.0213507,0.00151638,-0.000638924,-0.00802521
46,0,0,0,0,0,0,0,231.8,254,0,0,0,0,0,0,0,231.8,766,0,0.000654641,-0.000422821,0.000516243,0.0164718,0.0126217,0.0014402,0.000186844,0.000913658,0.130831,-7.78213e-06,0.0010022,0.0131076,-0.0214651,0.00102047,0.00069622,-0.00768188
46,1,0,0,0,0,0,0,231.8,254,0,0,0,0,0,0,0,231.8,766,0,0.000654641,0.000416412,0.000783272,0.0166244,0.0102185,0.000715408,0.00117867,-7.81631e-05,0.0401176,0.000411835,0.000735168,0.0100177,-0.0210455,0.00163082,-0.000486336,-0.00836853
46,2,0,0,0,0,0,0,231.8,254,0,0,0,0,0,0,0,231.8,766,0,0.000730935,0.00125565,0.00131733,0.0158996,0.00648006,0.00113502,0.000186844,0.000570335,-0.104269,0.00182327,-0.000332947,0.0137179,-0.0211218,0.00151638,0.00058178,-0.00726227
46,3,0,0,0,0,0,0,231.8,254,0,0,0,0,0,0,0,231.8,766,0,0.000502053,0.000912323,0.000897713,0.0167389,0.00586971,0.000410232,0.000873489,0.000799217,-0.0258385,0.000488129,0.000315552,0.0147097,-0.0213126,0.00109676,0.000543633,-0.00764374
46,4,0,0,0,0,0,0,231.8,254,0,0,0,0,0,0,0,231.8,766,0,0.000807228,0.000149383,0.00150806,0.0163574,0.00297054,0.00102058,0.000873489,0.000570335,0.0375236,0.00117477,0.000773315,0.0149005,-0.0208167,0.00151638,0.00058178,-0.00798706
46,5,0,0,0,0,0,0,231.8,254,0,0,0,0,0,0,0,231.8,766,0,0.000425759,0.000683441,0.000592537,0.0160141,0.00365719,0.000639114,-4.2038e-05,0.000188866,-0.0824868,0.000259247,-0.000714417,0.0113528,-0.0210074,0.000333824,0.00058178,-0.00821594
46,6,0,0,0,0,0,0,231.8,254,0,0,0,0,0,0,0,231.8,766,0,0.000578347,0.00140823,0.00139362,0.0168914,0.00651821,0.00163094,0.000797195,0.000494041,-0.0209176,0.000945892,0.00107849,0.0139849,-0.0203589,0.00136379,0.000124016,-0.00871185
46,7,0,0,0,0,0,0,231.8,254,0,0,0,0,0,0,0,231.8,766,0,0.00126499,0.00095047,0.000745125,0.0164718,0.00831112,0.00117317,0.000415726,0.000150719,0.0504173,0.00147995,0.00138367,0.0133746,-0.0206641,0.000829735,0.000238457,-0.00890259
46,8,0,0,0,0,0,0,231.8,254,0,0,0,0,0,0,0,231.8,766,0,0.000807228,0.000912323,-0.000628166,0.0158233,0.0132702,0.000639114,0.000148697,0.00129513,-0.0734841,-0.000579987,0.00046814,0.0139849,-0.0210837,0.000944176,-0.000257454,-0.010047
46,9,0,0,0,0,0,0,231.8,254,0,0,0,0,0,0,0,231.8,766,0,0.000578347,0.00159897,0.00150806,0.0163574,0.0109433,0.00163094,0.00140755,0.000303307,-0.0597512,0.0015181,-0.000752564,0.0144427,-0.0213889,0.00102047,4.77219e-05,-0.00794891
47,0,0,0,0,0,0,0,231.8,254,0,0,0,0,0,0,0,231.8,766,0,0.00115055,0.000530853,0.00108845,0.0162429,0.0127362,-0.000200119,0.000453873,0.000837364,-0.0306069,0.000526275,0.00138367,0.0137561,-0.020397,-0.00023838,0.000734367,-0.00821594
47,1,0,0,0,0,0,0,231.8,254,0,0,0,0,0,0,0,231.8,766,0,0.000120583,0.000645294,0.000325508,0.0165863,0.0122403,-0.000276413,0.000186844,-0.000230751,0.0265754,0.00117477,0.00096405,0.0124209,-0.0224188,0.000448265,-0.000257454,-0.00909332
47,2,0,0,0,0,0,0,231.8,254,0,0,0,0,0,0,0,231.8,766,0,0.000235024,0.000645294,0.00055439,0.0161666,0.0154827,0.00132576,0.00049202,-0.000230751,-0.00375145,0.000449982,0.000239258,0.00929287,-0.0215414,-8.57925e-05,0.000124016,-0.00836853
47,3,0,0,0,0,0,0,231.8,254,0,0,0,0,0,0,0,231.8,766,0,0.00160831,0.00148453,0.00158436,0.0159378,0.0162838,0.00132576,0.000415726,0.000837364,-0.0514733,0.00167068,0.00111664,0.0124209,-0.0201682,0.00201229,-6.6719e-05,-0.00867371
47,4,0,0,0,0,0,0,231.8,254,0,0,0,0,0,0,0,231.8,766,0,0.000120583,0.000797882,0.000821419,0.0172348,0.0113247,0.000181351,0.000720901,0.000646629,0.0446571,0.00102219,0.000353699,0.0145953,-0.0213507,-8.57925e-05,0.00130657,-0.00958923
47,5,0,0,0,0,0,0,231.8,254,0,0,0,0,0,0,0,231.8,766,0,-0.000489769,0.000378265,-0.000170403,0.015213,0.0112866,0.000257645,0.00049202,-4.00161e-05,0.00338203,-0.000427399,0.000620727,0.0173037,-0.0215796,0.000104942,0.000543633,-0.00928406
47,6,0,0,0,0,0,0,231.8,254,0,0,0,0,0,0,0,231.8,766,0,-7.01519e-05,3.49423e-05,0.000363655,0.0155182,0.00941738,0.000448379,0.000377579,-0.000841103,-0.0428521,0.000182953,-0.000447388,0.0184481,-0.021694,0.000562706,9.57493e-06,-0.00943665
47,7,0,0,0,0,0,0,231.8,254,0,0,0,0,0,0,0,231.8,766,0,0.000235024,0.00140823,0.000287361,0.0157852,0.010867,0.00102058,0.000873489,0.000875511,0.0635017,0.000335541,-0.000447388,0.0185244,-0.0203589,0.000791588,0.000963249,-0.00703339
47,8,0,0,0,0,0,0,231.8,254,0,0,0,0,0,0,0,231.8,766,0,0.000807228,0.00106491,0.000668831,0.0153656,0.0129269,0.000791702,0.00060646,0.0010281,0.0161994,0.00136551,0.00115479,0.0179904,-0.0214651,0.0012112,0.00164989,-0.00829224
47,9,0,0,0,0,0,0,231.8,254,0,0,0,0,0,0,0,231.8,766,0,0.0005402,0.000607147,0.0010503,0.0162811,0.00934109,0.000829849,0.00110237,-0.000230751,-0.0410592,0.00178513,0.000391846,0.0157397,-0.0215414,-0.000314674,0.000734367,-0.00764374
48,0,0,0,0,0,0,0,231.8,254,0,0,0,0,0,0,0,231.8,766,0,0.000235024,0.000301971,0.000134773,0.0155563,0.00529751,-0.000276413,0.000682754,-1.86916e-06,0.0701392,6.85118e-05,0.000735168,0.0161975,-0.0219992,0.000486412,0.00115398,-0.00890259
48,1,0,0,0,0,0,0,231.8,254,0,0,0,0,0,0,0,231.8,766,0,0.000387612,0.000378265,0.000439949,0.0157089,-0.00202671,0.000257645,-3.89107e-06,0.000341454,0.0248206,0.000945892,0.00123108,0.0150149,-0.0215796,-0.000200233,0.000848808,-0.00905518
48,2,0,0,0,0,0,0,231.8,254,0,0,0,0,0,0,0,231.8,766,0,-0.000756797,0.00095047,0.00143177,0.0169296,-4.92088e-06,0.00155464,0.00102608,-0.000383339,-0.0566232,0.00117477,0.0010022,0.0163501,-0.0205496,0.00147823,0.000162163,-0.00798706
48,3,0,0,0,0,0,0,231.8,254,0,0,0,0,0,0,0,231.8,766,0,0.0005402,0.000721588,0.000592537,0.0158233,-0.00309483,0.000677261,0.000797195,0.00106625,-0.00909203,0.000488129,0.000811462,0.0167697,-0.0222662,0.00136379,0.00164989,-0.00890259
48,4,0,0,0,0,0,0,231.8,254,0,0,0,0,0,0,0,231.8,766,0,-7.01519e-05,0.00129379,0.00112659,0.016777,-0.00454441,0.000524673,0.000797195,0.000455895,0.014521,0.000411835,0.000201111,0.0175326,-0.0206259,0.00178341,0.00203136,-0.00772003
48,5,0,0,0,0,0,0,231.8,254,0,0,0,0,0,0,0,231.8,766,0,6.14207e-06,0.000912323,0.000897713,0.0173492,-0.00496403,0.00113502,0.00121681,0.000684776,0.0636161,0.000984039,0.000429993,0.0153964,-0.0196722,0.00159267,0.00172619,-0.00905518
48,6,0,0,0,0,0,0,231.8,254,0,0,0,0,0,0,0,231.8,766,0,0.00015873,0.00095047,0.000134773,0.0156707,-0.00454441,0.000524673,0.000148697,-7.81631e-05,-0.035299,0.000640716,0.000201111,0.0132602,-0.0221136,0.000371971,4.77219e-05,-0.00821594
48,7,0,0,0,0,0,0,231.8,254,0,0,0,0,0,0,0,231.8,766,0,0.000273171,0.000912323,5.84793e-05,0.0158233,-0.00484959,6.69097e-05,0.000453873,0.000379601,0.0136436,6.85118e-05,-0.00140106,0.0126879,-0.02116,2.86484e-05,0.00103954,-0.00798706
48,8,0,0,0,0,0,0,231.8,254,0,0,0,0,0,0,0,231.8,766,0,0.000578347,0.000530853,0.000363655,0.0158615,-0.00278965,0.000410232,0.000301285,-0.000230751,0.0612128,0.000869598,0.000124817,0.00975063,-0.0222281,0.00025753,4.77219e-05,-0.0105048
48,9,0,0,0,0,0,0,231.8,254,0,0,0,0,0,0,0,231.8,766,0,0.000654641,-0.00107132,-5.59617e-05,0.0166244,-0.00324741,0.000295792,0.000644607,0.000227013,-0.0335061,0.000831451,-0.000180359,0.00975063,-0.0221899,0.000982323,0.000467339,-0.00833038
49,0,0,0,0,0,0,0,231.8,254,0,0,0,0,0,0,0,231.8,766,0,0.000959816,0.000263824,0.000745125,0.0163955,-0.000806007,0.000867996,-8.0185e-05,0.00026516,0.0190604,0.00106033,0.0010022,0.0103228,-0.0213889,-0.000734291,0.000925102,-0.00840668
49,1,0,0,0,0,0,0,231.8,254,0,0,0,0,0,0,0,231.8,766,0,0.00153202,0.000569,9.66262e-05,0.0157852,-0.00114933,-4.75312e-05,0.00049202,0.000227013,0.077082,-0.000351105,0.000544433,0.0125735,-0.0223425,0.000410118,-0.00018116,-0.00943665
49,2,0,0,0,0,0,0,231.8,254,0,0,0,0,0,0,0,231.8,766,0,0.000425759,0.000988617,0.00127918,0.0167007,0.00197872,0.000753555,0.00125496,0.000150719,-0.0348794,0.000564422,0.000773315,0.0147097,-0.0213507,0.00140194,0.000886955,-0.00920776
49,3,0,0,0,0,0,0,231.8,254,0,0,0,0,0,0,0,231.8,766,0,0.000235024,0.000569,5.84793e-05,0.0165481,0.00438198,0.000753555,-0.000728684,0.000379601,0.0183356,-0.000694428,4.85228e-05,0.016846,-0.0230292,2.86484e-05,0.00115398,-0.00825409
49,4,0,0,0,0,0,0,231.8,254,0,0,0,0,0,0,0,231.8,766,0,0.0005402,0.000530853,0.000706978,0.0156326,-0.00160709,-4.75312e-05,0.000797195,-0.000459633,0.0833381,0.000449982,1.03759e-05,0.0160067,-0.0207785,0.00025753,-0.000104866,-0.00806335
49,5,0,0,0,0,0,0,231.8,254,0,0,0,0,0,0,0,231.8,766,0,0.000616494,0.000645294,-9.41086e-05,0.0154037,0.000414696,-0.000467148,0.00049202,0.00076107,-0.0383126,-0.00119034,0.0010022,0.0123065,-0.0216559,0.000410118,0.00123028,-0.00821594
49,6,0,0,0,0,0,0,231.8,254,0,0,0,0,0,0,0,231.8,766,0,0.000959816,0.00140823,0.000401802,0.0161285,-0.00206486,0.000181351,0.00110237,0.00121883,-0.0293862,0.000297394,0.00104034,0.0133746,-0.0215414,0.000867882,0.000505486,-0.00806335
49,7,0,0,0,0,0,0,231.8,254,0,0,0,0,0,0,0,231.8,766,0,0.000578347,0.00095047,0.00120289,0.0168914,-0.00244633,0.000982437,0.000186844,-0.000192604,-0.00207298,0.00102219,0.00130737,0.0102084,-0.0203589,0.00102047,0.00115398,-0.00787262
49,8,0,0,0,0,0,0,231.8,254,0,0,0,0,0,0,0,231.8,766,0,0.000654641,0.000111236,0.000706978,0.0162048,-0.00481144,-0.000200119,0.000377579,-1.86916e-06,0.0823463,0.000144806,0.00130737,0.00807217,-0.0219611,6.67954e-05,0.00123028,-0.00821594
49,9,0,0,0,0,0,0,231.8,254,0,0,0,0,0,0,0,231.8,766,0,0.0005402,0.000225677,0.000249214,0.0155563,-0.00164524,0.000105057,0.00110237,0.000455895,0.172831,0.00125107,0.000887756,0.0108187,-0.0203589,0.000982323,0.0010014,-0.00783447
50,0,0,0,0,0,0,0,231.8,254,0,0,0,0,0,0,0,231.8,766,0,0.000997963,0.00171341,0.00135548,0.0165863,0.00239834,0.000372085,0.00159828,0.00118069,0.143992,0.000640716,0.00138367,0.0118106,-0.0198248,-0.000200233,0.00199322,-0.00779633
50,1,0,0,0,0,0,0,231.8,254,0,0,0,0,0,0,0,231.8,766,0,0.000807228,-7.94986e-05,0.00127918,0.0163955,0.00155911,0.000333939,0.000949783,-0.000421486,0.103899,0.000488129,0.00107849,0.0123446,-0.0213889,0.00151638,0.00119213,-0.0104285
50,2,0,0,0,0,0,0,231.8,254,0,0,0,0,0,0,0,231.8,766,0,0.0011887,0.00095047,-5.59617e-05,0.0169296,0.00369534,0.00117317,0.000835342,0.000227013,-0.0477731,-0.000694428,0.00142181,0.0130694,-0.0199774,0.000906029,0.00180248,-0.00829224
50,3,0,0,0,0,0,0,231.8,254,0,0,0,0,0,0,0,231.8,766,0,0.000502053,-0.000422821,-0.000284843,0.0143356,0.00396236,-0.000200119,0.000339432,7.44248e-05,-0.0901925,-0.00149551,-0.000790711,0.0121157,-0.0221899,-0.000696144,-0.000295601,-0.00859741
50,4,0,0,0,0,0,0,231.8,254,0,0,0,0,0,0,0,231.8,766,0,0.000883522,0.00095047,0.000668831,0.0156707,0.00468716,0.000181351,7.24029e-05,0.000188866,0.0333656,0.000678863,-0.000599976,0.0147479,-0.0207785,0.00102047,-0.000410042,-0.00920776
50,5,0,0,0,0,0,0,231.8,254,0,0,0,0,0,0,0,231.8,766,0,0.000502053,-0.000117646,0.000897713,0.0159378,0.00548824,0.000982437,0.000797195,3.62778e-05,-0.022329,0.000678863,0.000620727,0.0103228,-0.0216177,0.000448265,0.000162163,-0.00791077
50,6,0,0,0,0,0,0,231.8,254,0,0,0,0,0,0,0,231.8,766,0,0.000769082,-0.000346527,-1.78147e-05,0.0159759,0.00571712,0.000982437,0.000720901,0.000608482,-0.0812661,0.000869598,0.000735168,0.00582149,-0.0207785,-0.000390968,0.000505486,-0.0101996
50,7,0,0,0,0,0,0,231.8,254,0,0,0,0,0,0,0,231.8,766,0,0.000807228,0.00133194,0.00120289,0.0155944,0.00628933,0.00109688,0.00159828,-4.00161e-05,0.0409187,0.000678863,0.000925903,0.00566891,-0.0211218,0.0012112,0.000429192,-0.00844482
50,8,0,0,0,0,0,0,231.8,254,0,0,0,0,0,0,0,231.8,766,0,0.000578347,0.000645294,0.000897713,0.0169677,0.0112484,0.000791702,0.00133125,0.000989952,-0.00634544,0.000678863,0.000277405,0.0126498,-0.0200537,0.0012875,0.00103954,-0.00936035
50,9,0,0,0,0,0,0,231.8,254,0,0,0,0,0,0,0,231.8,766,0,0.000807228,0.000454559,0.000325508,0.0169296,0.013461,0.000867996,0.00152199,-0.000154457,-0.0890862,-0.000198517,0.000773315,0.0178759,-0.0209692,0.00136379,0.00107769,-0.00878815
51,0,0,0,0,0,0,0,231.8,254,0,0,0,0,0,0,0,231.8,766,0,0.000845375,0.000836029,-5.59617e-05,0.0147934,0.0137661,0.000906143,0.000530167,0.000532188,-0.0353753,0.000488129,-0.0002948,0.0214999,-0.0210837,0.000143089,0.000772514,-0.00897888
51,1,0,0,0,0,0,0,231.8,254,0,0,0,0,0,0,0,231.8,766,0,0.00103611,0.000874176,-0.000246697,0.0162429,0.0102948,0.000257645,-0.000232773,0.00106625,-0.0124871,0.000335541,0.000429993,0.0200122,-0.0219611,0.00105862,0.000391045,-0.0100851
51,2,0,0,0,0,0,0,231.8,254,0,0,0,0,0,0,0,231.8,766,0,0.000654641,-7.94986e-05,0.000706978,0.0165863,0.0107525,0.000295792,0.000911636,-0.000154457,0.0401176,0.0014418,0.000506287,0.0179141,-0.0219229,0.000791588,8.58689e-05,-0.00829224
51,3,0,0,0,0,0,0,231.8,254,0,0,0,0,0,0,0,231.8,766,0,0.000120583,0.000607147,-9.41086e-05,0.0162048,0.0123166,0.000524673,7.24029e-05,0.000799217,-0.0544488,-0.000236664,0.000391846,0.0192874,-0.021694,-0.000543556,0.000772514,-0.00863556
51,4,0,0,0,0,0,0,231.8,254,0,0,0,0,0,0,0,231.8,766,0,0.000921669,0.000378265,0.000211067,0.0161666,0.0118969,0.000257645,0.000873489,7.44248e-05,-0.00131004,0.000793304,-0.000104065,0.0179141,-0.0215033,0.000562706,0.000314751,-0.00855927
51,5,0,0,0,0,0,0,231.8,254,0,0,0,0,0,0,0,231.8,766,0,0.000654641,3.49423e-05,-9.41086e-05,0.0148315,0.0130032,2.87627e-05,3.42559e-05,-0.00011631,0.048014,-0.000274811,1.03759e-05,0.0179141,-0.0213889,2.86484e-05,0.000810661,-0.00974182
