Devices
1000
,,North - Force,,,North - Moment,,,North - CoP,,,South - Force,,,South - Moment,,,South - CoP,,,EMG - Voltage,,,,,,,,,,,,,,,,
Frame,Sub Frame,Fx,Fy,Fz,Mx,My,Mz,Cx,Cy,Cz,Fx,Fy,Fz,Mx,My,Mz,Cx,Cy,Cz,1,2,3,TA,5,Sol,7,8,VL,RF,BF,GlutMed,GlutMax,14,MedGast,16
,,N,N,N,N.mm,N.mm,N.mm,mm,mm,mm,N,N,N,N.mm,N.mm,N.mm,mm,mm,mm,V,V,V,V,V,V,V,V,V,V,V,V,V,V,V,V
1,0,0,0,0,0,0,0,231.8,254,0,0,0,0,0,0,0,231.8,766,0,0.00115055,0.000149383,-0.000246697,0.0160522,0.00506863,0.00124947,-3.89107e-06,0.000417748,-0.0338494,0.00128921,0.000925903,0.016846,-0.0220374,0.00163082,0.000963249,-0.00821594
1,1,0,0,0,0,0,0,231.8,254,0,0,0,0,0,0,0,231.8,766,0,0.000883522,0.00156082,0.000439949,0.0157089,0.000948753,0.000105057,7.24029e-05,-7.81631e-05,-0.00394218,-8.40761e-05,0.000391846,0.013222,-0.0219992,0.00113491,0.00111584,-0.00749115
1,2,0,0,0,0,0,0,231.8,254,0,0,0,0,0,0,0,231.8,766,0,0.000463906,-0.000384674,-1.78147e-05,0.01651,0.00216946,0.000372085,0.000148697,0.000608482,0.0662101,0.000488129,0.000506287,0.0120776,-0.021427,0.0012112,-0.000905952,-0.00802521
1,3,0,0,0,0,0,0,231.8,254,0,0,0,0,0,0,0,231.8,766,0,0.000196877,0.000569,0.00120289,0.0162429,0.00552639,0.000982437,-0.000194626,0.000417748,0.168101,0.00102219,0.00134552,0.0138705,-0.0206641,6.67954e-05,0.00107769,-0.00878815
1,4,0,0,0,0,0,0,231.8,254,0,0,0,0,0,0,0,231.8,766,0,0.000921669,0.00220932,0.000783272,0.0157852,0.00400051,0.00151649,0.000644607,0.000417748,0.143076,0.000831451,0.000773315,0.0168078,-0.0206641,0.00147823,0.00134472,-0.00993256
1,5,0,0,0,0,0,0,231.8,254,0,0,0,0,0,0,0,231.8,766,0,0.000845375,0.000912323,0.00108845,0.0167389,-0.000653419,0.000982437,0.00125496,3.62778e-05,0.110422,0.00128921,0.000887756,0.0165026,-0.0202444,0.000448265,0.00123028,-0.00783447
1,6,0,0,0,0,0,0,231.8,254,0,0,0,0,0,0,0,231.8,766,0,-0.000909385,0.00106491,0.000706978,0.0160904,-4.92088e-06,0.00056282,-4.2038e-05,-0.000726662,-0.0283181,0.00117477,0.00046814,0.0155108,-0.0215796,0.000371971,0.00123028,-0.010047
1,7,0,0,0,0,0,0,231.8,254,0,0,0,0,0,0,0,231.8,766,0,0.000196877,-3.20468e-06,-0.000895195,0.0154037,0.00232204,0.000219498,0.000415726,0.000112572,-0.0969064,-0.000732575,-0.0002948,0.0146334,-0.0230673,0.000410118,-0.000791511,-0.00947479
1,8,0,0,0,0,0,0,231.8,254,0,0,0,0,0,0,0,231.8,766,0,0.000502053,0.00106491,0.000287361,0.0158233,0.00339016,-0.000429001,0.000186844,0.000150719,0.0240577,0.000411835,0.000315552,0.0132983,-0.0219611,0.000524559,0.000886955,-0.00722412
1,9,0,0,0,0,0,0,231.8,254,0,0,0,0,0,0,0,231.8,766,0,0.00137943,0.00106491,0.000249214,0.0155563,0.00434383,0.000906143,0.00060646,0.000227013,-0.00645988,0.000335541,-6.59181e-05,0.00940731,-0.0229529,0.0012112,0.00126843,-0.00951294
2,0,0,0,0,0,0,0,231.8,254,0,0,0,0,0,0,0,231.8,766,0,0.000273171,0.000111236,0.000325508,0.0157089,0.00171169,0.000982437,0.000568314,0.000646629,-0.0844704,0.00109848,-0.00117218,0.0104373,-0.0210837,0.000715294,-0.00018116,-0.00775818
2,1,0,0,0,0,0,0,231.8,254,0,0,0,0,0,0,0,231.8,766,0,-0.000299034,0.000874176,0.000630684,0.0165481,0.00503048,0.00105873,0.000377579,0.000455895,0.0301612,0.000373688,0.000773315,0.0137179,-0.02116,0.000982323,0.00058178,-0.00970367
2,2,0,0,0,0,0,0,231.8,254,0,0,0,0,0,0,0,231.8,766,0,0.000463906,-0.00030838,-0.000170403,0.0149078,0.00361904,-0.000505295,0.000186844,0.000303307,0.00895149,0.000373688,-2.77711e-05,0.0106662,-0.0224951,0.000104942,0.000619926,-0.00905518
2,3,0,0,0,0,0,0,231.8,254,0,0,0,0,0,0,0,231.8,766,0,-0.000413475,0.0011412,0.000974007,0.0153274,0.00430569,0.000982437,0.00049202,0.000188866,-0.0872933,-0.000427399,0.000697021,0.0137561,-0.0208929,0.000448265,0.000124016,-0.00791077
2,4,0,0,0,0,0,0,231.8,254,0,0,0,0,0,0,0,231.8,766,0,0.000883522,0.000836029,0.000592537,0.0163192,0.00560268,0.00094429,-4.2038e-05,0.000341454,-0.0372445,0.00117477,8.66698e-05,0.0149005,-0.0208548,0.000906029,0.00058178,-0.00909332
2,5,0,0,0,0,0,0,231.8,254,0,0,0,0,0,0,0,231.8,766,0,0.00107426,0.000530853,0.000363655,0.0162048,0.00453457,0.000677261,0.000835342,0.000646629,-0.0174462,-0.000503693,0.00046814,0.0153964,-0.0218848,0.0012875,0.0010014,-0.00844482
2,6,0,0,0,0,0,0,231.8,254,0,0,0,0,0,0,0,231.8,766,0,0.000769082,0.000988617,-9.41086e-05,0.0154037,0.00575527,0.000181351,0.000682754,-0.000459633,0.0413383,0.00071701,-0.000905151,0.0149386,-0.0211218,0.000448265,-0.000219307,-0.00844482
2,7,0,0,0,0,0,0,231.8,254,0,0,0,0,0,0,0,231.8,766,0,0.00145573,0.00095047,0.000859566,0.0167007,0.00571712,0.00094429,0.00117867,0.000417748,-0.0463616,-4.59291e-05,0.00145996,0.0184863,-0.0208929,0.00147823,0.00164989,-0.00901703
2,8,0,0,0,0,0,0,231.8,254,0,0,0,0,0,0,0,231.8,766,0,0.0011124,0.000797882,0.000897713,0.0168151,0.00510677,0.000791702,0.00152199,0.000951805,-0.0112283,0.00128921,0.000811462,0.0174182,-0.0202063,0.00166897,0.0015736,-0.0075293
2,9,0,0,0,0,0,0,231.8,254,0,0,0,0,0,0,0,231.8,766,0,0.000769082,0.00217117,0.000516243,0.0163192,0.00361904,0.00159279,-0.000423508,0.000379601,0.0510276,0.000678863,0.00153625,0.01738,-0.0210837,2.86484e-05,0.00229839,-0.00775818
3,0,0,0,0,0,0,0,231.8,254,0,0,0,0,0,0,0,231.8,766,0,-0.000337181,0.000454559,0.000745125,0.0165863,0.00289425,0.000791702,0.00098793,-4.00161e-05,-0.0374734,0.00109848,-0.000142212,0.0174182,-0.0203589,0.000524559,0.000467339,-0.00787262
3,1,0,0,0,0,0,0,231.8,254,0,0,0,0,0,0,0,231.8,766,0,-7.01519e-05,0.000149383,0.000516243,0.0154419,0.00297054,0.00102058,0.000949783,-0.000764809,-0.00344627,-0.000312958,-0.000790711,0.0139087,-0.0215414,0.000219383,-0.000448189,-0.00966553
3,2,0,0,0,0,0,0,231.8,254,0,0,0,0,0,0,0,231.8,766,0,0.000120583,0.000988617,-0.000551872,0.0169296,0.00689968,-0.00031456,-0.000232773,-0.000154457,0.0715125,-0.000274811,-6.59181e-05,0.0117724,-0.0216559,0.000410118,0.000810661,-0.00897888
3,3,0,0,0,0,0,0,231.8,254,0,0,0,0,0,0,0,231.8,766,0,-3.20049e-05,-0.000422821,0.000516243,0.0163192,0.00689968,0.000906143,0.000530167,0.000188866,-0.0324761,0.000106659,0.000124817,0.0127642,-0.0215414,0.000562706,0.000925102,-0.00821594
3,4,0,0,0,0,0,0,231.8,254,0,0,0,0,0,0,0,231.8,766,0,0.000578347,0.000683441,-1.78147e-05,0.0163955,0.00941738,0.00128761,0.000377579,0.00144772,0.000902481,0.000488129,0.000658874,0.0160449,-0.0208929,0.00025753,0.000314751,-0.00905518
3,5,0,0,0,0,0,0,231.8,254,0,0,0,0,0,0,0,231.8,766,0,0.000502053,-0.000956879,0.000439949,0.015747,0.00606045,0.000295792,0.000949783,-0.000421486,0.0816215,0.0002211,-0.000905151,0.01841,-0.0207404,0.000486412,-2.8572e-05,-0.00928406
3,6,0,0,0,0,0,0,231.8,254,0,0,0,0,0,0,0,231.8,766,0,-0.000184593,0.000340118,9.66262e-05,0.0163574,0.00781521,-8.56782e-05,-0.000843124,-0.00106998,-0.0287377,-0.000122223,-0.000104065,0.0153201,-0.0208167,0.000410118,0.00069622,-0.00737671
3,7,0,0,0,0,0,0,231.8,254,0,0,0,0,0,0,0,231.8,766,0,8.2436e-05,0.000569,0.000134773,0.0163955,0.00808224,0.000410232,0.000530167,0.000379601,-0.0351846,0.000564422,0.000544433,0.0165789,-0.0232581,0.000791588,0.000925102,-0.00798706
3,8,0,0,0,0,0,0,231.8,254,0,0,0,0,0,0,0,231.8,766,0,0.000769082,0.000683441,0.000706978,0.0155563,0.00770077,0.0014402,-8.0185e-05,0.000532188,-0.00462883,0.000907745,-0.000142212,0.0141757,-0.02116,0.000371971,-2.8572e-05,-0.00829224
3,9,0,0,0,0,0,0,231.8,254,0,0,0,0,0,0,0,231.8,766,0,-0.000146446,0.00152267,0.00116474,0.0162811,0.00640377,0.000677261,0.000873489,0.000341454,0.0417579,0.000259247,0.000697021,0.014519,-0.0210837,0.000753441,0.00020031,-0.00840668
4,0,0,0,0,0,0,0,231.8,254,0,0,0,0,0,0,0,231.8,766,0,6.14207e-06,0.000912323,-0.000475578,0.0156707,0.00884518,0.00113502,0.000682754,-0.000192604,0.0289405,0.000678863,-0.000142212,0.015549,-0.0204733,0.000906029,0.00123028,-0.00970367
4,1,0,0,0,0,0,0,231.8,254,0,0,0,0,0,0,0,231.8,766,0,0.000502053,0.000416412,0.000401802,0.0158615,0.0103329,0.000295792,0.000530167,3.62778e-05,-0.0374734,0.000907745,4.85228e-05,0.0155871,-0.0228003,0.00025753,0.000505486,-0.00821594
4,2,0,0,0,0,0,0,231.8,254,0,0,0,0,0,0,0,231.8,766,0,0.000845375,0.00198044,0.00127918,0.016777,0.0103329,0.00155464,0.00133125,0.00076107,0.0525153,3.03648e-05,-2.77711e-05,0.0145572,-0.0203589,0.000982323,0.000772514,-0.00829224
4,3,0,0,0,0,0,0,231.8,254,0,0,0,0,0,0,0,231.8,766,0,0.000845375,0.00117935,0.00093586,0.0164718,0.00792965,0.0014402,0.00125496,0.000684776,0.0279868,0.000793304,0.00153625,0.0114291,-0.0201682,0.00170712,0.000238457,-0.00852112
4,4,0,0,0,0,0,0,231.8,254,0,0,0,0,0,0,0,231.8,766,0,0.000578347,0.00106491,0.00135548,0.0162429,0.00800594,0.00140205,0.000797195,0.000608482,-0.0339639,0.000945892,0.000887756,0.0120013,-0.0208929,0.00159267,0.00176434,-0.00840668
4,5,0,0,0,0,0,0,231.8,254,0,0,0,0,0,0,0,231.8,766,0,6.14207e-06,0.000530853,0.000478096,0.0162811,0.0053738,0.000639114,0.000263138,-0.000230751,0.0614799,0.00109848,0.00104034,0.0154727,-0.0213507,0.000524559,0.00069622,-0.00943665
4,6,0,0,0,0,0,0,231.8,254,0,0,0,0,0,0,0,231.8,766,0,8.2436e-05,0.00152267,0.00162251,0.0160141,0.00430569,0.000181351,0.000224991,-0.000154457,0.037104,0.00071701,0.000277405,0.0152056,-0.0209692,0.000867882,-0.000410042,-0.00649933
4,7,0,0,0,0,0,0,231.8,254,0,0,0,0,0,0,0,231.8,766,0,-0.000337181,0.000378265,0.000974007,0.0159759,0.00365719,0.000181351,-4.2038e-05,0.000112572,-0.0400674,0.00125107,0.000658874,0.0159686,-0.0207785,0.00102047,0.00138287,-0.00852112
4,8,0,0,0,0,0,0,231.8,254,0,0,0,0,0,0,0,231.8,766,0,-0.000527916,-0.00019394,0.000363655,0.0156707,0.00167355,0.000715408,0.000644607,-0.00049778,0.0647224,0.000488129,4.85228e-05,0.0116198,-0.021427,0.00136379,0.00107769,-0.00852112
4,9,0,0,0,0,0,0,231.8,254,0,0,0,0,0,0,0,231.8,766,0,0.0011887,0.000225677,0.00135548,0.0159759,0.00628933,0.00155464,0.00140755,0.000951805,0.0427497,0.00155624,0.00046814,0.014252,-0.0202826,0.000677147,0.00180248,-0.00791077
5,0,0,0,0,0,0,0,231.8,254,0,0,0,0,0,0,0,231.8,766,0,0.0005402,0.000797882,0.000859566,0.0163955,0.0066708,0.000410232,0.000759048,0.000150719,-0.0552117,0.000411835,0.000735168,0.0164645,-0.0205115,0.00136379,0.000505486,-0.00955109
5,1,0,0,0,0,0,0,231.8,254,0,0,0,0,0,0,0,231.8,766,0,0.000235024,-7.94986e-05,0.0010503,0.0155563,0.00461086,0.000982437,0.00106422,0.000455895,-0.00970238,0.000984039,0.000162964,0.0113528,-0.0204733,0.000982323,0.000658073,-0.00821594
5,2,0,0,0,0,0,0,231.8,254,0,0,0,0,0,0,0,231.8,766,0,0.000235024,-0.000422821,-0.000170403,0.0157089,0.00339016,0.000181351,0.000568314,0.00076107,0.0118125,-4.59291e-05,0.000162964,0.0130694,-0.0221899,0.000104942,0.000925102,-0.00970367
5,3,0,0,0,0,0,0,231.8,254,0,0,0,0,0,0,0,231.8,766,0,0.000463906,0.000263824,0.000516243,0.0154037,0.00369534,0.000333939,0.000453873,-0.000726662,0.133387,0.00132736,0.000391846,0.0169223,-0.0207404,0.000867882,0.0010014,-0.0099707
5,4,0,0,0,0,0,0,231.8,254,0,0,0,0,0,0,0,231.8,766,0,0.00134129,0.000340118,0.00120289,0.0165863,0.00392422,0.000906143,0.00098793,0.00118069,0.162417,0.00109848,0.0010022,0.0161212,-0.021427,0.000829735,0.000162163,-0.00836853
5,5,0,0,0,0,0,0,231.8,254,0,0,0,0,0,0,0,231.8,766,0,0.000692788,0.00110306,0.0016988,0.016777,0.00144466,0.00102058,0.00140755,0.000303307,0.133196,0.0015181,0.000849609,0.0148623,-0.0209692,0.00166897,0.00164989,-0.00829224
5,6,0,0,0,0,0,0,231.8,254,0,0,0,0,0,0,0,231.8,766,0,0.000845375,7.30893e-05,0.000974007,0.0172348,0.00331387,0.000486526,0.00011055,0.00076107,0.0573981,0.000335541,0.000391846,0.0131457,-0.0203589,0.000486412,-0.000219307,-0.00787262
5,7,0,0,0,0,0,0,231.8,254,0,0,0,0,0,0,0,231.8,766,0,-0.00022274,-0.000155793,-9.41086e-05,0.0153656,0.00106319,0.000143204,0.00114052,-0.000764809,-0.097593,0.000526275,0.000620727,0.0121539,-0.0223044,0.000295677,0.000543633,-0.0093222
5,8,0,0,0,0,0,0,231.8,254,0,0,0,0,0,0,0,231.8,766,0,0.0005402,-0.000232087,0.000859566,0.0155182,-0.000577125,0.000410232,0.00110237,0.000532188,-0.0399529,0.000259247,0.00046814,0.00952175,-0.0208548,0.000600853,0.000124016,-0.00924591
5,9,0,0,0,0,0,0,231.8,254,0,0,0,0,0,0,0,231.8,766,0,0.000273171,0.000111236,0.000211067,0.015213,-0.00198856,0.000257645,0.000949783,0.000646629,0.0416816,0.000335541,-0.000523682,0.00719479,-0.0217703,0.000600853,0.000276604,-0.00844482
6,0,0,0,0,0,0,0,231.8,254,0,0,0,0,0,0,0,231.8,766,0,0.0005402,0.00133194,0.00154621,0.0162048,0.000948753,0.00102058,0.00156013,0.000494041,-0.0726067,0.000411835,0.00058258,0.00841549,-0.0213889,0.00243191,0.000429192,-0.00833038
6,1,0,0,0,0,0,0,231.8,254,0,0,0,0,0,0,0,231.8,766,0,0.000769082,-0.000537262,5.84793e-05,0.0159378,-0.000462685,0.000524673,0.00011055,3.62778e-05,-0.0343453,0.000602569,0.000887756,0.012955,-0.0217322,0.000982323,-0.000486336,-0.00737671
6,2,0,0,0,0,0,0,231.8,254,0,0,0,0,0,0,0,231.8,766,0,0.0005402,3.49423e-05,0.00127918,0.0169296,-0.000233803,0.00121132,0.00178902,0.000570335,0.0536216,0.00113663,0.000353699,0.0176471,-0.0207785,0.00163082,0.00069622,-0.00875
6,3,0,0,0,0,0,0,231.8,254,0,0,0,0,0,0,0,231.8,766,0,-0.000337181,0.000530853,0.0016988,0.0169296,0.00133022,0.00121132,0.00117867,0.000532188,-0.0611245,-0.000274811,0.000620727,0.016846,-0.0204352,0.000448265,0.00145916,-0.00928406
6,4,0,0,0,0,0,0,231.8,254,0,0,0,0,0,0,0,231.8,766,0,6.14207e-06,0.000149383,0.0010503,0.0164718,-0.00027195,0.000829849,0.00144569,-0.000726662,-0.0637185,0.00163254,0.00153625,0.0155871,-0.0212744,0.00124935,0.00058178,-0.00760559
6,5,0,0,0,0,0,0,231.8,254,0,0,0,0,0,0,0,231.8,766,0,0.000959816,-4.13517e-05,-0.000284843,0.01651,0.000758019,0.00117317,0.000415726,0.000799217,-0.0306069,0.000678863,0.000735168,0.0162738,-0.0212744,0.001936,0.000543633,-0.00936035
6,6,0,0,0,0,0,0,231.8,254,0,0,0,0,0,0,0,231.8,766,0,0.000997963,-4.13517e-05,0.000859566,0.0162048,0.0029324,0.000677261,0.00133125,0.00114254,0.0194801,0.000411835,-0.000332947,0.0136035,-0.0205878,0.000448265,0.000848808,-0.00703339
6,7,0,0,0,0,0,0,231.8,254,0,0,0,0,0,0,0,231.8,766,0,-0.000184593,0.00140823,0.00166065,0.0163574,0.00468716,0.00109688,0.000720901,0.000989952,0.00803597,0.00155624,0.00107849,0.0120776,-0.020397,0.00208858,0.00214581,-0.00863556
6,8,0,0,0,0,0,0,231.8,254,0,0,0,0,0,0,0,231.8,766,0,0.00103611,0.000454559,-9.41086e-05,0.0171585,0.00598415,0.000181351,0.00117867,0.000188866,-0.0549065,-4.59291e-05,0.00123108,0.0138705,-0.0209311,0.00205044,0.00210766,-0.00886444
6,9,0,0,0,0,0,0,231.8,254,0,0,0,0,0,0,0,231.8,766,0,0.000235024,0.000607147,0.000401802,0.0146026,0.00625118,0.000105057,0.000911636,7.44248e-05,0.038668,-0.000389252,-0.000867005,0.0124591,-0.0216559,0.000143089,0.000391045,-0.00852112
7,0,0,0,0,0,0,0,231.8,254,0,0,0,0,0,0,0,231.8,766,0,0.000654641,0.000645294,0.000325508,0.0162429,0.00510677,-0.000657883,0.00117867,0.000608482,0.0101722,0.000564422,0.000391846,0.0166552,-0.0215033,-9.49856e-06,0.00123028,-0.00924591
7,1,0,0,0,0,0,0,231.8,254,0,0,0,0,0,0,0,231.8,766,0,-0.000299034,0.000263824,0.00127918,0.0164337,0.00659451,0.000753555,0.00129311,3.62778e-05,-0.0441491,0.00136551,-0.000180359,0.0170749,-0.0216559,0.000982323,0.000505486,-0.00859741
7,2,0,0,0,0,0,0,231.8,254,0,0,0,0,0,0,0,231.8,766,0,0.000463906,0.000263824,-5.59617e-05,0.0156326,0.00556454,0.000982437,-0.000156479,0.000913658,0.0537742,0.000335541,0.000124817,0.0163882,-0.0210455,0.000333824,0.00195507,-0.00699524
7,3,0,0,0,0,0,0,231.8,254,0,0,0,0,0,0,0,231.8,766,0,0.000120583,0.000301971,0.000211067,0.0159759,0.00468716,0.000219498,0.00011055,-0.000459633,0.0286353,6.85118e-05,0.000620727,0.0159686,-0.02116,0.000753441,0.000963249,-0.00890259
7,4,0,0,0,0,0,0,231.8,254,0,0,0,0,0,0,0,231.8,766,0,0.000959816,0.000836029,0.000821419,0.0167389,0.00159725,0.00094429,0.000873489,0.000951805,-0.0452554,0.000831451,8.66698e-05,0.0171511,-0.0211218,0.00136379,0.00103954,-0.00852112
7,5,0,0,0,0,0,0,231.8,254,0,0,0,0,0,0,0,231.8,766,0,0.000502053,0.000645294,0.00093586,0.0165481,0.00319942,0.00128761,0.000415726,0.000341454,0.0620521,0.000907745,0.000544433,0.0129168,-0.0218466,0.0012875,0.00176434,-0.00894073
7,6,0,0,0,0,0,0,231.8,254,0,0,0,0,0,0,0,231.8,766,0,0.00153202,0.000301971,0.00150806,0.0169296,0.00438198,0.00121132,0.00197975,0.00076107,0.0387443,0.00132736,0.00126923,0.0121539,-0.0210455,0.000867882,0.0015736,-0.00882629
7,7,0,0,0,0,0,0,231.8,254,0,0,0,0,0,0,0,231.8,766,0,0.000807228,0.000912323,0.000745125,0.0161666,0.0035046,0.00102058,0.000797195,0.000570335,-0.0563561,0.000411835,0.000887756,0.0110095,-0.0218848,0.00105862,0.000848808,-0.00833038
7,8,0,0,0,0,0,0,231.8,254,0,0,0,0,0,0,0,231.8,766,0,0.000730935,0.00140823,0.000478096,0.0162811,0.00201687,0.000906143,0.00110237,0.000646629,-0.0110375,0.00102219,-0.000218506,0.0125354,-0.0213889,0.0012875,-0.000257454,-0.00955109
7,9,0,0,0,0,0,0,231.8,254,0,0,0,0,0,0,0,231.8,766,0,0.000311318,-0.00030838,0.000211067,0.0157852,0.00113949,0.000867996,0.000339432,0.000341454,0.00673897,3.03648e-05,-0.000409241,0.0138324,-0.0214651,0.00136379,0.00218395,-0.00669006
8,0,0,0,0,0,0,0,231.8,254,0,0,0,0,0,0,0,231.8,766,0,0.000692788,0.000149383,0.000783272,0.0152511,0.00274166,0.000791702,0.000949783,-7.81631e-05,0.0633109,0.000869598,0.000658874,0.0185626,-0.0206641,0.000295677,0.000963249,-0.00768188
8,1,0,0,0,0,0,0,231.8,254,0,0,0,0,0,0,0,231.8,766,0,0.000807228,0.000416412,0.000974007,0.0175018,0.00491604,-9.38424e-06,0.000759048,0.000837364,-0.0270211,0.000640716,0.00134552,0.0204699,-0.0205115,0.000486412,0.0010014,-0.00951294
8,2,0,0,0,0,0,0,231.8,254,0,0,0,0,0,0,0,231.8,766,0,-0.000375328,0.000416412,0.000859566,0.0159378,0.00548824,0.00094429,3.42559e-05,-0.00011631,0.00227577,0.00109848,0.00096405,0.0166552,-0.0211218,0.000982323,0.000391045,-0.00878815
8,3,0,0,0,0,0,0,231.8,254,0,0,0,0,0,0,0,231.8,766,0,0.000616494,0.000607147,-0.000170403,0.0155944,0.00510677,0.000105057,-0.000919418,-0.000307045,0.0645698,0.000449982,1.03759e-05,0.0144809,-0.0217322,0.000333824,0.00111584,-0.00913147
8,4,0,0,0,0,0,0,231.8,254,0,0,0,0,0,0,0,231.8,766,0,-7.01519e-05,-0.000613556,0.000211067,0.0153274,0.00144466,0.00109688,0.000415726,-0.000230751,-0.0247323,0.000259247,4.85228e-05,0.0149386,-0.0222662,0.000562706,0.000429192,-0.00676636
8,5,0,0,0,0,0,0,231.8,254,0,0,0,0,0,0,0,231.8,766,0,0.000692788,0.000912323,0.000401802,0.0160141,0.00670895,0.000867996,0.000530167,-4.00161e-05,0.00715858,0.00117477,8.66698e-05,0.0191348,-0.0214651,0.000867882,0.00103954,-0.00985626
8,6,0,0,0,0,0,0,231.8,254,0,0,0,0,0,0,0,231.8,766,0,0.000463906,0.0011412,0.0010503,0.0171203,0.00564083,0.000906143,0.000949783,0.00125698,0.0810493,0.000793304,0.00126923,0.0173419,-0.0207404,0.00212673,0.00138287,-0.00756744
8,7,0,0,0,0,0,0,231.8,254,0,0,0,0,0,0,0,231.8,766,0,0.000387612,0.00095047,0.00150806,0.0163574,0.00182613,0.000486526,0.00060646,0.00110439,-0.0262963,0.00106033,-0.000332947,0.0141757,-0.0221136,0.00166897,0.00138287,-0.00855927
8,8,0,0,0,0,0,0,231.8,254,0,0,0,0,0,0,0,231.8,766,0,0.000387612,0.00018753,-0.000857048,0.0154037,0.00262722,0.000105057,0.00060646,0.00026516,0.00528938,0.00071701,-0.000447388,0.0140612,-0.0207404,0.00124935,0.00069622,-0.00928406
8,9,0,0,0,0,0,0,231.8,254,0,0,0,0,0,0,0,231.8,766,0,-0.000451622,0.000721588,0.00093586,0.0149841,0.00308498,0.000333939,7.24029e-05,0.000188866,0.086695,0.00071701,1.03759e-05,0.012192,-0.0223425,-0.000505409,0.000772514,-0.00760559
9,0,0,0,0,0,0,0,231.8,254,0,0,0,0,0,0,0,231.8,766,0,0.000692788,0.000912323,0.00158436,0.0165481,0.000719872,0.000372085,0.000911636,0.000379601,-0.0267541,0.000602569,0.000124817,0.0148623,-0.0215796,0.000677147,0.00153545,-0.00886444
9,1,0,0,0,0,0,0,231.8,254,0,0,0,0,0,0,0,231.8,766,0,4.4289e-05,-0.000155793,-0.000399284,0.0160522,-0.00252262,-4.75312e-05,0.000568314,0.000303307,-0.0354134,0.00071701,0.000773315,0.0134509,-0.0208548,0.000715294,0.000238457,-0.00878815
9,2,0,0,0,0,0,0,231.8,254,0,0,0,0,0,0,0,231.8,766,0,0.000845375,0.000530853,0.000134773,0.0155182,0.00159725,0.00159279,0.000415726,0.000913658,-0.00295036,-0.000122223,-6.59181e-05,0.0146334,-0.021694,0.000753441,0.00149731,-0.0081015
9,3,0,0,0,0,0,0,231.8,254,0,0,0,0,0,0,0,231.8,766,0,0.000235024,0.00102676,0.000668831,0.0164337,0.00010952,0.00124947,0.000682754,0.000532188,0.0666297,0.000945892,0.000887756,0.0131457,-0.0218085,0.000753441,0.00142101,-0.0081778
9,4,0,0,0,0,0,0,231.8,254,0,0,0,0,0,0,0,231.8,766,0,0.000654641,0.000378265,0.00093586,0.0161666,0.000910606,0.00128761,0.000682754,0.00133327,0.168749,0.000755157,0.00134552,0.0126879,-0.0205878,0.00151638,0.000543633,-0.00897888
9,5,0,0,0,0,0,0,231.8,254,0,0,0,0,0,0,0,231.8,766,0,0.0005402,0.000797882,2.03323e-05,0.01651,0.00209316,0.000600967,0.000530167,0.00171474,0.143191,0.000602569,0.00107849,0.0122683,-0.02116,0.000448265,0.00145916,-0.0081778
9,6,0,0,0,0,0,0,231.8,254,0,0,0,0,0,0,0,231.8,766,0,0.0005402,7.30893e-05,-0.000246697,0.0161666,0.00232204,0.000448379,0.000797195,-1.86916e-06,0.111033,0.000144806,-0.0015918,0.0182193,-0.0218085,0.000448265,-0.000143013,-0.00913147
9,7,0,0,0,0,0,0,231.8,254,0,0,0,0,0,0,0,231.8,766,0,0.000654641,0.000149383,0.000287361,0.0158996,-0.000577125,0.000410232,0.000415726,-4.00161e-05,-0.0300729,0.000297394,4.85228e-05,0.0193637,-0.0228003,0.00105862,0.00130657,-0.0081778
9,8,0,0,0,0,0,0,231.8,254,0,0,0,0,0,0,0,231.8,766,0,0.000921669,0.00110306,0.000592537,0.0161285,0.00209316,-9.38424e-06,-0.000232773,0.00121883,-0.0972115,0.000869598,-0.000523682,0.0198977,-0.0219611,0.000829735,0.000734367,-0.00821594
9,9,0,0,0,0,0,0,231.8,254,0,0,0,0,0,0,0,231.8,766,0,6.14207e-06,0.000378265,0.000974007,0.017044,0.00319942,0.00147835,0.000377579,0.000989952,0.0252784,0.000106659,0.000697021,0.0158923,-0.0207785,6.67954e-05,8.58689e-05,-0.00756744
10,0,0,0,0,0,0,0,231.8,254,0,0,0,0,0,0,0,231.8,766,0,-7.01519e-05,0.000645294,0.00055439,0.0164337,0.00327572,0.00094429,0.000415726,7.44248e-05,-0.00710838,0.00128921,0.000773315,0.0159686,-0.0213507,0.00117306,0.00111584,-0.00852112
10,1,0,0,0,0,0,0,231.8,254,0,0,0,0,0,0,0,231.8,766,0,0.000387612,0.000225677,-0.000857048,0.0166244,0.00693783,0.000715408,0.000720901,0.000875511,-0.0863396,0.000488129,-6.59181e-05,0.0187915,-0.0218848,0.000944176,0.000391045,-0.00852112
10,2,0,0,0,0,0,0,231.8,254,0,0,0,0,0,0,0,231.8,766,0,0.000997963,0.000607147,0.00101215,0.0162048,0.00354275,0.00109688,0.00129311,0.000341454,0.0315345,0.000984039,-0.000142212,0.0185626,-0.0213507,0.000753441,0.00168804,-0.00859741
10,3,0,0,0,0,0,0,231.8,254,0,0,0,0,0,0,0,231.8,766,0,0.000883522,0.000836029,0.00154621,0.0172729,0.00327572,0.00094429,0.000720901,0.000570335,0.00895149,0.00106033,-0.000142212,0.0176852,-0.0212744,0.00117306,0.000848808,-0.00714783
10,4,0,0,0,0,0,0,231.8,254,0,0,0,0,0,0,0,231.8,766,0,-0.000375328,-4.13517e-05,5.84793e-05,0.0162429,0.0054501,0.000791702,0.000644607,-0.000459633,-0.0893533,-0.000999603,0.000773315,0.0163119,-0.0213889,0.00105862,0.000619926,-0.00875
10,5,0,0,0,0,0,0,231.8,254,0,0,0,0,0,0,0,231.8,766,0,0.000845375,0.0011412,0.00108845,0.0146026,0.00422939,0.000410232,0.000377579,0.000150719,-0.0373589,0.00109848,0.000544433,0.0129931,-0.0220755,-0.00023838,-0.000219307,-0.00852112
10,6,0,0,0,0,0,0,231.8,254,0,0,0,0,0,0,0,231.8,766,0,0.00115055,0.000340118,0.00055439,0.0162811,0.00430569,0.000333939,0.00117867,0.00118069,-0.0175988,0.000488129,8.66698e-05,0.0131076,-0.0211218,0.000829735,0.00107769,-0.00825409
10,7,0,0,0,0,0,0,231.8,254,0,0,0,0,0,0,0,231.8,766,0,0.000807228,0.00144638,0.00154621,0.0171203,0.00255093,0.00117317,0.00098793,0.000837364,0.0416053,0.00071701,-0.000447388,0.0118106,-0.0208929,0.00163082,0.00184063,-0.00627045
10,8,0,0,0,0,0,0,231.8,254,0,0,0,0,0,0,0,231.8,766,0,0.00137943,0.00125565,0.000287361,0.01651,0.00621304,0.000791702,-0.000309067,0.00163845,-0.0460183,0.000678863,0.00130737,0.0126117,-0.02116,0.000753441,0.00130657,-0.00806335
10,9,0,0,0,0,0,0,231.8,254,0,0,0,0,0,0,0,231.8,766,0,8.2436e-05,7.30893e-05,0.000363655,0.0161285,0.00934109,0.00117317,0.000453873,-0.000383339,-0.0143945,0.000449982,0.000277405,0.0105517,-0.02013,0.0012112,4.77219e-05,-0.00783447
11,0,0,0,0,0,0,0,231.8,254,0,0,0,0,0,0,0,231.8,766,0,0.000311318,0.000225677,-0.000170403,0.0158233,0.0107525,0.000257645,0.000530167,0.000341454,0.0509895,-0.000351105,-0.000752564,0.0110095,-0.0219611,0.00025753,0.000124016,-0.00863556
11,1,0,0,0,0,0,0,231.8,254,0,0,0,0,0,0,0,231.8,766,0,-0.000527916,3.49423e-05,-0.000284843,0.0156326,0.00945553,-0.000352707,-0.00107201,-4.00161e-05,-0.0367104,-0.000885163,-0.0002948,0.0141757,-0.0216559,0.000448265,0.00123028,-0.00848297
11,2,0,0,0,0,0,0,231.8,254,0,0,0,0,0,0,0,231.8,766,0,0.000311318,-4.13517e-05,9.66262e-05,0.0153274,0.00583157,0.000715408,0.00156013,0.000455895,-0.00359886,0.000526275,0.000239258,0.0130694,-0.0215796,0.000524559,0.00145916,-0.00882629
11,3,0,0,0,0,0,0,231.8,254,0,0,0,0,0,0,0,231.8,766,0,0.000387612,-7.94986e-05,-0.00020855,0.015213,0.00422939,0.000829849,0.00106422,0.000188866,0.0721992,0.000449982,0.000315552,0.00715664,-0.0215033,0.000448265,0.00142101,-0.00794891
11,4,0,0,0,0,0,0,231.8,254,0,0,0,0,0,0,0,231.8,766,0,0.000845375,0.000225677,0.00131733,0.0157089,0.00236019,0.000600967,0.000339432,0.000532188,-0.0318658,-0.000122223,0.000201111,0.0113147,-0.0220374,0.000829735,0.00195507,-0.00783447
11,5,0,0,0,0,0,0,231.8,254,0,0,0,0,0,0,0,231.8,766,0,8.2436e-05,0.000263824,0.000516243,0.0156326,0.00403866,0.000524673,-0.000347214,-0.000154457,0.000330277,-0.00016037,-0.000142212,0.011391,-0.0216559,-0.00023838,0.00119213,-0.00875
11,6,0,0,0,0,0,0,231.8,254,0,0,0,0,0,0,0,231.8,766,0,0.000502053,0.000721588,-0.000475578,0.0162429,0.00369534,-0.000161972,0.00049202,-7.81631e-05,0.0825751,0.00125107,0.000429993,0.0137942,-0.0210074,0.000562706,0.00199322,-0.00936035
11,7,0,0,0,0,0,0,231.8,254,0,0,0,0,0,0,0,231.8,766,0,0.0011124,0.00125565,0.00150806,0.01651,0.00239834,0.00109688,0.000682754,0.000913658,-0.0291573,0.000945892,0.00145996,0.0128405,-0.0204733,0.00105862,0.000467339,-0.00936035
11,8,0,0,0,0,0,0,231.8,254,0,0,0,0,0,0,0,231.8,766,0,0.000387612,0.00095047,0.000745125,0.0161285,0.0016354,0.000639114,0.000530167,-0.00049778,-0.0356042,0.000526275,1.03759e-05,0.0150912,-0.0200919,0.000677147,0.00138287,-0.00802521
11,9,0,0,0,0,0,0,231.8,254,0,0,0,0,0,0,0,231.8,766,0,0.000578347,-0.00149094,0.00108845,0.01651,0.00331387,0.000448379,0.000759048,0.000608482,-0.00588768,0.00113663,0.00172699,0.0147479,-0.0213126,0.00136379,0.000963249,-0.00829224
12,0,0,0,0,0,0,0,231.8,254,0,0,0,0,0,0,0,231.8,766,0,-0.000260887,-0.000117646,-0.000590019,0.0158233,0.00575527,0.00113502,0.00106422,-0.000154457,0.039698,0.000526275,-0.0002948,0.0151294,-0.0214651,0.000867882,0.000734367,-0.00829224
12,1,0,0,0,0,0,0,231.8,254,0,0,0,0,0,0,0,231.8,766,0,0.000921669,0.000263824,-0.000628166,0.0146408,0.00598415,2.87627e-05,0.00011055,0.000188866,0.0307334,0.000106659,0.00107849,0.0165408,-0.0223044,0.00124935,0.00107769,-0.00970367
12,2,0,0,0,0,0,0,231.8,254,0,0,0,0,0,0,0,231.8,766,0,0.0011124,0.000797882,0.00093586,0.0161285,0.00316128,0.0014402,0.000911636,0.000455895,-0.0372063,0.00167068,0.00046814,0.0135653,-0.0192908,0.00117306,0.00069622,-0.00772003
12,3,0,0,0,0,0,0,231.8,254,0,0,0,0,0,0,0,231.8,766,0,-0.000527916,0.000645294,0.000706978,0.0163574,0.00155911,0.000982437,0.000835342,0.000303307,0.0519813,0.000793304,0.000124817,0.0132983,-0.0215033,0.00117306,0.00103954,-0.00783447
12,4,0,0,0,0,0,0,231.8,254,0,0,0,0,0,0,0,231.8,766,0,0.00103611,0.000797882,-9.41086e-05,0.0152511,-0.000729713,0.000219498,-8.0185e-05,0.000341454,0.0271095,0.000831451,-0.000447388,0.0133746,-0.0204733,0.000600853,8.58689e-05,-0.00802521
12,5,0,0,0,0,0,0,231.8,254,0,0,0,0,0,0,0,231.8,766,0,0.000349465,0.000759735,0.000211067,0.0152511,0.000185814,-0.000123825,0.000224991,0.000188866,-0.0352608,0.000297394,-0.0002948,0.0166171,-0.0230292,-9.49856e-06,-2.8572e-05,-0.00825409
12,6,0,0,0,0,0,0,231.8,254,0,0,0,0,0,0,0,231.8,766,0,-0.000108299,0.00129379,0.000783272,0.0169677,0.0047253,0.00117317,0.00129311,0.000837364,0.0623191,0.00170883,0.0015744,0.0206988,-0.0208167,0.00166897,0.00187878,-0.010314
12,7,0,0,0,0,0,0,231.8,254,0,0,0,0,0,0,0,231.8,766,0,4.4289e-05,0.00117935,0.00116474,0.0164337,0.00514492,0.0014402,-3.89107e-06,-0.000459633,0.037638,0.00109848,0.0015744,0.0190585,-0.0200156,0.00113491,0.0010014,-0.00714783
12,8,0,0,0,0,0,0,231.8,254,0,0,0,0,0,0,0,231.8,766,0,8.2436e-05,0.000454559,0.000783272,0.0162811,0.00239834,0.000639114,0.000263138,0.000417748,-0.0411736,0.00159439,0.000925903,0.0179904,-0.0206641,0.00105862,0.00115398,-0.00768188
12,9,0,0,0,0,0,0,231.8,254,0,0,0,0,0,0,0,231.8,766,0,0.000997963,0.000340118,-0.00116222,0.0164337,0.00140652,0.000677261,0.00102608,0.000379601,0.0651038,0.00136551,0.00107849,0.0162356,-0.0200537,0.000791588,-0.000333748,-0.00833038
13,0,0,0,0,0,0,0,231.8,254,0,0,0,0,0,0,0,231.8,766,0,0.000578347,0.00148453,0.0010503,0.0159759,0.00339016,0.000867996,0.000644607,0.00110439,0.0437797,0.00132736,-0.000409241,0.0108569,-0.0205496,2.86484e-05,0.00134472,-0.007453
13,1,0,0,0,0,0,0,231.8,254,0,0,0,0,0,0,0,231.8,766,0,0.000654641,-7.94986e-05,0.000821419,0.0165863,0.0022839,0.000486526,0.000873489,0.000303307,-0.0547921,0.000259247,-0.000599976,0.00887325,-0.0207022,0.000944176,0.00153545,-0.00783447
13,2,0,0,0,0,0,0,231.8,254,0,0,0,0,0,0,0,231.8,766,0,6.14207e-06,0.00110306,0.000974007,0.0161666,0.007243,0.000600967,0.000682754,-0.000764809,-0.00989311,0.00178513,0.00153625,0.0140231,-0.0209311,0.000333824,0.000886955,-0.00802521
13,3,0,0,0,0,0,0,231.8,254,0,0,0,0,0,0,0,231.8,766,0,0.00122685,0.00018753,0.000974007,0.016777,0.007243,0.00109688,0.00060646,0.000188866,0.0130332,0.000564422,0.00123108,0.0168841,-0.0209692,0.000944176,0.000925102,-0.00775818
13,4,0,0,0,0,0,0,231.8,254,0,0,0,0,0,0,0,231.8,766,0,0.000845375,0.000797882,-0.000170403,0.0148315,0.00590786,-4.75312e-05,0.000530167,0.000112572,0.134646,0.000564422,0.000887756,0.0158923,-0.0209311,6.67954e-05,0.000276604,-0.00825409
13,5,0,0,0,0,0,0,231.8,254,0,0,0,0,0,0,0,231.8,766,0,-0.000299034,0.000683441,0.000783272,0.0161285,0.00426754,-0.000161972,3.42559e-05,0.000570335,0.163218,-7.78213e-06,1.03759e-05,0.01841,-0.0211981,0.000410118,-6.6719e-05,-0.00901703
13,6,0,0,0,0,0,0,231.8,254,0,0,0,0,0,0,0,231.8,766,0,0.000196877,0.000492706,0.000249214,0.0162429,0.00854,0.00102058,0.000873489,3.62778e-05,0.132243,0.000945892,0.000773315,0.016846,-0.0204352,0.000982323,0.0010014,-0.00737671
13,7,0,0,0,0,0,0,231.8,254,0,0,0,0,0,0,0,231.8,766,0,0.000273171,0.000340118,0.0010503,0.0161666,0.00682339,0.00117317,0.00148384,0.000494041,0.0562537,0.000526275,0.000201111,0.0128024,-0.0212744,0.00025753,8.58689e-05,-0.00909332
13,8,0,0,0,0,0,0,231.8,254,0,0,0,0,0,0,0,231.8,766,0,0.00153202,0.00152267,0.000974007,0.0164337,0.00579342,0.00094429,0.000339432,0.000608482,-0.097326,0.000793304,0.00195587,0.00906399,-0.0203207,0.00166897,0.00145916,-0.00878815
13,9,0,0,0,0,0,0,231.8,254,0,0,0,0,0,0,0,231.8,766,0,0.000463906,-4.13517e-05,0.00135548,0.0173492,0.00548824,0.00117317,0.00175087,0.000494041,-0.039457,0.00121292,1.03759e-05,0.0104754,-0.02116,0.00025753,0.000429192,-0.00955109
14,0,0,0,0,0,0,0,231.8,254,0,0,0,0,0,0,0,231.8,766,0,0.000959816,0.000378265,0.00116474,0.0163574,0.00403866,0.00117317,0.00140755,-0.000383339,0.0419105,0.00178513,0.00115479,0.0115435,-0.0208167,0.00132565,0.00119213,-0.0075293
14,1,0,0,0,0,0,0,231.8,254,0,0,0,0,0,0,0,231.8,766,0,0.00210423,0.00095047,0.000897713,0.0162429,0.00491604,0.000486526,0.000720901,0.000494041,-0.0735604,-7.78213e-06,0.000239258,0.013489,-0.0218466,0.00132565,0.000352898,-0.00840668
14,2,0,0,0,0,0,0,231.8,254,0,0,0,0,0,0,0,231.8,766,0,0.00015873,0.000607147,0.00116474,0.0150222,0.00224575,0.000600967,0.00102608,7.44248e-05,-0.035299,0.000297394,0.000429993,0.0114672,-0.0209311,0.000677147,0.000162163,-0.00783447
14,3,0,0,0,0,0,0,231.8,254,0,0,0,0,0,0,0,231.8,766,0,0.000502053,-0.00030838,0.00108845,0.0162429,0.00380978,0.000524673,0.00102608,0.000646629,0.0546897,0.000106659,0.000239258,0.0140231,-0.02116,0.000295677,0.000963249,-0.0081778
14,4,0,0,0,0,0,0,231.8,254,0,0,0,0,0,0,0,231.8,766,0,0.00145573,0.00129379,0.000592537,0.0177688,0.0048016,0.00121132,0.00117867,0.000303307,-0.0611245,0.00178513,0.00119293,0.0159686,-0.0213507,0.00159267,0.00241283,-0.0101233
14,5,0,0,0,0,0,0,231.8,254,0,0,0,0,0,0,0,231.8,766,0,-7.01519e-05,-3.20468e-06,0.000363655,0.01548,-4.92088e-06,0.000829849,0.000301285,-0.000459633,-0.0643288,0.00071701,0.000315552,0.0164645,-0.021427,0.000333824,0.000238457,-0.00760559
14,6,0,0,0,0,0,0,231.8,254,0,0,0,0,0,0,0,231.8,766,0,0.00130314,0.00148453,0.000783272,0.0166626,-0.00202671,0.00102058,0.000949783,0.000837364,-0.031408,0.000526275,0.000735168,0.0170367,-0.0210455,0.00170712,0.00123028,-0.00970367
14,7,0,0,0,0,0,0,231.8,254,0,0,0,0,0,0,0,231.8,766,0,0.000616494,0.000416412,0.00017292,0.0169296,0.0035046,0.000600967,0.000835342,0.000417748,0.0198997,0.000793304,0.000429993,0.0166171,-0.0211981,0.00102047,0.0010014,-0.00821594
14,8,0,0,0,0,0,0,231.8,254,0,0,0,0,0,0,0,231.8,766,0,-3.20049e-05,-0.000155793,0.000592537,0.0150604,0.00739559,0.000372085,7.24029e-05,-0.000650368,0.0075782,-0.00016037,0.000544433,0.0143664,-0.0215796,0.000410118,-0.00018116,-0.00852112
14,9,0,0,0,0,0,0,231.8,254,0,0,0,0,0,0,0,231.8,766,0,0.000311318,3.49423e-05,0.000134773,0.015213,0.00289425,0.000600967,0.000949783,0.000684776,-0.0571572,0.000945892,0.000544433,0.012192,-0.0219992,0.000944176,0.000772514,-0.0093222
15,0,0,0,0,0,0,0,231.8,254,0,0,0,0,0,0,0,231.8,766,0,0.000311318,0.000530853,0.00124104,0.0159378,0.00598415,2.87627e-05,0.000377579,0.000989952,0.0379813,0.000106659,8.66698e-05,0.0124209,-0.0222662,-4.76455e-05,0.000162163,-0.00791077
15,1,0,0,0,0,0,0,231.8,254,0,0,0,0,0,0,0,231.8,766,0,0.000273171,0.00018753,0.000783272,0.0160522,0.00323757,0.000829849,0.000682754,7.44248e-05,0.0142158,0.00140366,0.000391846,0.0150149,-0.0212363,0.000982323,0.00172619,-0.00821594
15,2,0,0,0,0,0,0,231.8,254,0,0,0,0,0,0,0,231.8,766,0,0.000387612,0.0011412,0.00093586,0.0163574,0.00525936,0.00109688,0.00159828,0.000608482,-0.0464761,0.00155624,0.000620727,0.0179141,-0.0209311,0.00102047,0.000314751,-0.00829224
15,3,0,0,0,0,0,0,231.8,254,0,0,0,0,0,0,0,231.8,766,0,0.0005402,0.000874176,0.00093586,0.0165481,0.00651821,0.000639114,0.000415726,0.000875511,0.0543464,0.000793304,0.000925903,0.0140612,-0.0217703,-0.000314674,0.000276604,-0.00730042
15,4,0,0,0,0,0,0,231.8,254,0,0,0,0,0,0,0,231.8,766,0,0.000311318,0.000607147,0.000821419,0.0163574,0.00430569,0.000753555,0.000682754,0.000379601,0.0285972,-0.000389252,0.000544433,0.0114291,-0.0220755,0.001936,0.00119213,-0.00989441
15,5,0,0,0,0,0,0,231.8,254,0,0,0,0,0,0,0,231.8,766,0,0.000235024,0.000416412,0.00120289,0.0161666,0.0053738,0.00109688,0.000644607,0.000608482,-0.0466668,0.00128921,0.000391846,0.0164264,-0.0210074,0.000639,0.00103954,-0.00848297
15,6,0,0,0,0,0,0,231.8,254,0,0,0,0,0,0,0,231.8,766,0,0.00103611,0.000607147,0.000974007,0.0163955,0.00701412,0.00109688,0.000453873,0.000341454,0.0609458,0.000526275,0.00187958,0.0226062,-0.0208167,0.00144009,0.000505486,-0.00783447
15,7,0,0,0,0,0,0,231.8,254,0,0,0,0,0,0,0,231.8,766,0,0.000769082,0.000759735,-0.00032299,0.0163955,0.00968441,0.000257645,0.000911636,-0.00011631,0.0390113,0.00159439,-0.000599976,0.0221865,-0.021427,-8.57925e-05,0.000467339,-0.00981812
15,8,0,0,0,0,0,0,231.8,254,0,0,0,0,0,0,0,231.8,766,0,0.000425759,0.000912323,0.00131733,0.0158996,0.00930294,0.00105873,-0.000347214,-0.000268898,-0.0573479,0.00132736,-0.000104065,0.0176471,-0.0212744,0.00124935,0.000619926,-0.00791077
15,9,0,0,0,0,0,0,231.8,254,0,0,0,0,0,0,0,231.8,766,0,0.000311318,0.00110306,0.000859566,0.0166626,0.0107907,0.000906143,0.00114052,0.00118069,-0.0113045,0.00125107,0.00180328,0.0184481,-0.0218085,0.00178341,0.00115398,-0.00951294
16,0,0,0,0,0,0,0,231.8,254,0,0,0,0,0,0,0,231.8,766,0,0.000273171,0.000301971,0.000859566,0.0163192,0.00541195,0.000410232,0.000835342,0.000684776,0.00231392,0.00174698,0.0010022,0.0176089,-0.0214651,-0.000162086,0.000543633,-0.00848297
16,1,0,0,0,0,0,0,231.8,254,0,0,0,0,0,0,0,231.8,766,0,0.00015873,0.00018753,0.000821419,0.0163955,0.00678524,0.00147835,7.24029e-05,-0.000345192,0.0644935,0.00163254,4.85228e-05,0.0171511,-0.0213126,0.00117306,0.000848808,-0.00867371
16,2,0,0,0,0,0,0,231.8,254,0,0,0,0,0,0,0,231.8,766,0,0.000692788,-0.000155793,0.00017292,0.0154419,0.00384792,0.000105057,0.000377579,0.000379601,-0.0253045,-0.000312958,0.000124817,0.0158923,-0.0212363,0.0012112,-0.000219307,-0.0103522
16,3,0,0,0,0,0,0,231.8,254,0,0,0,0,0,0,0,231.8,766,0,-0.000451622,0.000225677,0.000783272,0.0149841,0.000834313,0.000829849,0.000720901,-0.000154457,6.3248e-05,0.00121292,0.000162964,0.0174563,-0.0212363,0.000867882,0.000391045,-0.00836853
16,4,0,0,0,0,0,0,231.8,254,0,0,0,0,0,0,0,231.8,766,0,0.00137943,0.000530853,2.03323e-05,0.0162048,0.00331387,0.000982437,0.000759048,0.00148586,0.0657905,-0.000236664,-0.000752564,0.0115817,-0.0221136,0.000562706,0.00123028,-0.00913147
16,5,0,0,0,0,0,0,231.8,254,0,0,0,0,0,0,0,231.8,766,0,0.00141758,0.000836029,0.000592537,0.0161666,0.00518307,0.000677261,0.00152199,0.00114254,-0.0263345,0.00155624,0.0016507,0.00631741,-0.0207404,0.00147823,0.000162163,-0.00806335
16,6,0,0,0,0,0,0,231.8,254,0,0,0,0,0,0,0,231.8,766,0,0.00153202,0.000492706,0.00116474,0.0158615,0.00453457,0.00109688,0.0013694,0.000646629,0.00589973,0.000564422,0.000429993,0.00917843,-0.0204352,0.000791588,0.000543633,-0.00749115
16,7,0,0,0,0,0,0,231.8,254,0,0,0,0,0,0,0,231.8,766,0,0.000578347,0.000988617,-1.78147e-05,0.0160141,0.00148281,0.00113502,0.0013694,0.000455895,0.0806678,0.00125107,-0.00105774,0.00894955,-0.022457,0.000448265,0.000925102,-0.00829224
16,8,0,0,0,0,0,0,231.8,254,0,0,0,0,0,0,0,231.8,766,0,0.000578347,0.00102676,0.0010503,0.0160141,0.00442013,0.00117317,0.000530167,0.000455895,-0.0257623,0.00121292,4.85228e-05,0.011658,-0.0217322,0.00140194,0.000810661,-0.00821594
16,9,0,0,0,0,0,0,231.8,254,0,0,0,0,0,0,0,231.8,766,0,0.00015873,0.000797882,-0.000399284,0.015747,0.00262722,0.000715408,-0.00137718,0.000455895,0.00475533,0.000449982,0.00126923,0.0131839,-0.0226477,0.000524559,-0.000448189,-0.00875
17,0,0,0,0,0,0,0,231.8,254,0,0,0,0,0,0,0,231.8,766,0,-0.000833091,0.000111236,9.66262e-05,0.0157089,-0.000577125,0.000715408,0.00060646,-0.000345192,0.086428,0.000984039,-0.00067627,0.00959804,-0.0215033,0.000867882,-0.000333748,-0.00901703
17,1,0,0,0,0,0,0,231.8,254,0,0,0,0,0,0,0,231.8,766,0,0.000769082,0.000721588,0.00181324,0.0171585,0.0035046,0.00163094,0.000720901,0.000379601,-0.0282418,0.000678863,-6.59181e-05,0.0116961,-0.0203207,0.00147823,0.000276604,-0.0081015
17,2,0,0,0,0,0,0,231.8,254,0,0,0,0,0,0,0,231.8,766,0,0.00145573,0.000797882,2.03323e-05,0.0160904,0.00384792,0.000982437,0.00060646,0.000875511,-0.0346124,0.000449982,0.000620727,0.0126117,-0.0220374,0.00140194,0.000276604,-0.00859741
17,3,0,0,0,0,0,0,231.8,254,0,0,0,0,0,0,0,231.8,766,0,0.0011887,0.00152267,0.000859566,0.0157852,0.00365719,0.00105873,0.000759048,0.00076107,-0.00405663,0.000869598,0.000353699,0.0137179,-0.0219611,0.000791588,-2.8572e-05,-0.0081778
17,4,0,0,0,0,0,0,231.8,254,0,0,0,0,0,0,0,231.8,766,0,0.000311318,0.000492706,0.000325508,0.0160141,0.00312313,0.000867996,0.000301285,-0.000154457,0.0660957,0.000182953,-0.000523682,0.0173419,-0.0213889,0.000944176,0.000658073,-0.00928406
17,5,0,0,0,0,0,0,231.8,254,0,0,0,0,0,0,0,231.8,766,0,0.000997963,0.000492706,0.000516243,0.0156707,0.00201687,-0.000161972,0.000530167,0.000646629,0.170237,0.000488129,-0.000561829,0.0146334,-0.0218466,0.000753441,0.000886955,-0.00852112
17,6,0,0,0,0,0,0,231.8,254,0,0,0,0,0,0,0,231.8,766,0,0.000235024,0.00133194,0.00112659,0.016777,0.00297054,0.000867996,0.000339432,0.000684776,0.145403,0.00201401,0.000925903,0.0148623,-0.0215414,0.000791588,0.00203136,-0.00916962
17,7,0,0,0,0,0,0,231.8,254,0,0,0,0,0,0,0,231.8,766,0,0.00149387,0.00209488,0.000134773,0.0170059,0.00468716,0.00193611,0.000148697,0.000684776,0.111681,0.000984039,0.00138367,0.0150912,-0.0211218,0.000867882,-0.000638924,-0.00779633
17,8,0,0,0,0,0,0,231.8,254,0,0,0,0,0,0,0,231.8,766,0,0.000463906,-0.000117646,0.000363655,0.0160141,0.00247463,0.000486526,-0.000194626,-7.81631e-05,-0.0304162,-0.000999603,1.03759e-05,0.0157397,-0.0211981,0.00117306,0.000429192,-0.00878815
17,9,0,0,0,0,0,0,231.8,254,0,0,0,0,0,0,0,231.8,766,0,0.000273171,0.000759735,0.000859566,0.0155944,0.00693783,0.000410232,-0.000156479,-0.000383339,-0.0986993,0.000640716,-0.000561829,0.0140612,-0.0208929,0.000677147,0.000238457,-0.00897888
18,0,0,0,0,0,0,0,231.8,254,0,0,0,0,0,0,0,231.8,766,0,0.0011887,7.30893e-05,-0.000475578,0.01651,0.00579342,0.000410232,0.00121681,0.000303307,0.0234473,0.00147995,0.000124817,0.0161593,-0.0212363,0.00174526,-0.00018116,-0.00821594
18,1,0,0,0,0,0,0,231.8,254,0,0,0,0,0,0,0,231.8,766,0,0.000692788,0.000607147,0.000363655,0.0161666,0.00670895,-9.38424e-06,0.000263138,0.000227013,-0.00710838,-0.000579987,0.000429993,0.0167697,-0.0217703,-0.00023838,0.000505486,-0.00829224
18,2,0,0,0,0,0,0,231.8,254,0,0,0,0,0,0,0,231.8,766,0,-0.000375328,0.00125565,-1.78147e-05,0.0155944,0.00617489,0.000486526,0.000873489,0.000608482,-0.0878274,0.000411835,0.000277405,0.0135272,-0.0215414,0.000867882,0.0015736,-0.00730042
18,3,0,0,0,0,0,0,231.8,254,0,0,0,0,0,0,0,231.8,766,0,0.000769082,-3.20468e-06,0.00055439,0.0168533,0.00583157,0.00105873,0.00110237,0.000570335,0.030619,0.00071701,0.000315552,0.0124972,-0.0205878,0.00197414,0.000238457,-0.00859741
18,4,0,0,0,0,0,0,231.8,254,0,0,0,0,0,0,0,231.8,766,0,0.000463906,0.000263824,0.000287361,0.01651,0.00529751,0.000410232,0.000682754,0.00125698,0.00937111,0.000755157,0.00104034,0.0154345,-0.0228384,-0.000505409,0.00176434,-0.00913147
18,5,0,0,0,0,0,0,231.8,254,0,0,0,0,0,0,0,231.8,766,0,0.000692788,0.000912323,0.000325508,0.0163192,0.00648006,0.000600967,0.000377579,-0.000230751,-0.090078,0.00147995,0.000353699,0.014252,-0.0226096,-0.000200233,0.000619926,-0.00833038
18,6,0,0,0,0,0,0,231.8,254,0,0,0,0,0,0,0,231.8,766,0,0.000196877,7.30893e-05,0.0010503,0.0162048,0.00709042,0.000677261,0.000568314,0.000455895,-0.0383508,-0.000351105,0.00138367,0.0136798,-0.0215033,0.000982323,-0.000143013,-0.00783447
18,7,0,0,0,0,0,0,231.8,254,0,0,0,0,0,0,0,231.8,766,0,0.000654641,0.000492706,-0.00020855,0.0160141,0.00510677,0.000715408,-0.000118332,0.000684776,-0.0188958,0.000907745,0.00130737,0.0137942,-0.0206259,0.00117306,0.0010014,-0.00924591
18,8,0,0,0,0,0,0,231.8,254,0,0,0,0,0,0,0,231.8,766,0,0.000769082,0.00159897,0.00135548,0.0168151,0.00232204,0.000600967,0.000568314,0.000341454,0.0421012,0.0014418,0.000735168,0.0126117,-0.0207404,0.000753441,0.00168804,-0.00848297
18,9,0,0,0,0,0,0,231.8,254,0,0,0,0,0,0,0,231.8,766,0,0.000273171,0.00117935,0.000821419,0.0173874,0.00262722,0.00151649,0.000644607,0.000799217,-0.0485741,0.00170883,0.00168884,0.0182574,-0.0207404,0.00140194,0.000810661,-0.00878815
19,0,0,0,0,0,0,0,231.8,254,0,0,0,0,0,0,0,231.8,766,0,0.000807228,0.00140823,-0.000742607,0.0166244,0.00422939,0.00151649,0.000949783,0.000684776,-0.0130212,0.000869598,-0.000180359,0.0180285,-0.0197485,0.00140194,0.00195507,-0.00924591
19,1,0,0,0,0,0,0,231.8,254,0,0,0,0,0,0,0,231.8,766,0,0.000578347,3.49423e-05,0.00055439,0.0152511,0.00354275,0.000410232,0.00133125,0.000570335,0.0519813,0.000373688,-0.000180359,0.0148623,-0.0215796,0.000562706,0.00069622,-0.00768188
19,2,0,0,0,0,0,0,231.8,254,0,0,0,0,0,0,0,231.8,766,0,0.000349465,0.00125565,0.000516243,0.0159378,0.00419125,0.000295792,-0.000309067,-0.00137516,-0.0373208,0.000373688,0.000277405,0.0165789,-0.0213126,0.000410118,0.00130657,-0.0102377
19,3,0,0,0,0,0,0,231.8,254,0,0,0,0,0,0,0,231.8,766,0,0.000463906,7.30893e-05,0.00017292,0.0153656,0.00430569,2.87627e-05,0.000873489,-1.86916e-06,-0.00439995,6.85118e-05,-0.000256653,0.0217669,-0.0223044,0.000600853,-6.6719e-05,-0.00863556
19,4,0,0,0,0,0,0,231.8,254,0,0,0,0,0,0,0,231.8,766,0,0.000387612,0.000149383,-5.59617e-05,0.0155182,0.00426754,0.000257645,-0.000347214,0.000341454,0.0731147,0.000411835,-0.000752564,0.0181811,-0.0211981,-4.76455e-05,0.00145916,-0.0093985
19,5,0,0,0,0,0,0,231.8,254,0,0,0,0,0,0,0,231.8,766,0,0.000463906,0.000263824,0.00055439,0.0160522,0.00445827,0.000333939,0.000568314,0.000188866,-0.0331246,0.000335541,0.000391846,0.0116198,-0.0208929,0.00132565,0.000543633,-0.00749115
19,6,0,0,0,0,0,0,231.8,254,0,0,0,0,0,0,0,231.8,766,0,0.000387612,0.000530853,0.000897713,0.0169677,0.00377163,0.00056282,0.00144569,0.00110439,-8.93399e-05,0.00102219,0.00138367,0.0137179,-0.0203589,0.000944176,0.00142101,-0.00878815
19,7,0,0,0,0,0,0,231.8,254,0,0,0,0,0,0,0,231.8,766,0,-7.01519e-05,0.00140823,-1.78147e-05,0.0166626,0.00445827,0.000105057,-0.000118332,0.000799217,0.0832236,0.000640716,0.00115479,0.0120013,-0.0224951,0.00113491,0.000238457,-0.00859741
19,8,0,0,0,0,0,0,231.8,254,0,0,0,0,0,0,0,231.8,766,0,-0.000833091,-0.000422821,0.000211067,0.0153656,0.00400051,0.000486526,0.000568314,-0.000307045,-0.0306069,0.000297394,-0.00067627,0.010628,-0.0215796,0.000143089,-0.000295601,-0.00829224
19,9,0,0,0,0,0,0,231.8,254,0,0,0,0,0,0,0,231.8,766,0,0.000959816,0.000912323,-0.000590019,0.0165481,0.00632748,0.000410232,0.000759048,0.00129513,-0.0358712,-0.000732575,0.000277405,0.0141757,-0.0209311,0.0012112,0.00119213,-0.00955109
20,0,0,0,0,0,0,0,231.8,254,0,0,0,0,0,0,0,231.8,766,0,0.000807228,0.000721588,0.000668831,0.0156707,0.00377163,0.000600967,0.000797195,0.000455895,-0.00539177,0.000411835,-6.59181e-05,0.0152819,-0.0202063,0.00151638,0.000772514,-0.00920776
20,1,0,0,0,0,0,0,231.8,254,0,0,0,0,0,0,0,231.8,766,0,0.000883522,-0.000499115,5.84793e-05,0.0158615,0.0016354,0.000715408,-0.000232773,7.44248e-05,0.0439704,0.000678863,-0.000867005,0.0132983,-0.0212744,0.000410118,-0.000791511,-0.00813965
20,2,0,0,0,0,0,0,231.8,254,0,0,0,0,0,0,0,231.8,766,0,-0.000680503,-0.000232087,0.000211067,0.0158615,0.00216946,0.000524673,0.00102608,-0.000268898,0.0305427,0.000335541,0.000620727,0.014519,-0.0217322,0.000944176,0.00164989,-0.00890259
20,3,0,0,0,0,0,0,231.8,254,0,0,0,0,0,0,0,231.8,766,0,0.000692788,0.000340118,0.0010503,0.0169677,-0.00107304,0.00121132,0.000682754,0.00076107,-0.0393807,0.000106659,0.000620727,0.0146716,-0.0208167,0.000295677,0.00107769,-0.00657562
20,4,0,0,0,0,0,0,231.8,254,0,0,0,0,0,0,0,231.8,766,0,4.4289e-05,0.000912323,0.000974007,0.0162048,-0.00271336,0.000448379,0.000263138,-0.000307045,0.0526298,0.000526275,4.85228e-05,0.0132602,-0.0219611,0.000410118,0.000543633,-0.00951294
20,5,0,0,0,0,0,0,231.8,254,0,0,0,0,0,0,0,231.8,766,0,0.0005402,0.000492706,-0.000170403,0.0154037,-0.00172153,-4.75312e-05,-0.00103386,-7.81631e-05,0.0271476,0.000640716,0.00096405,0.0137942,-0.0217322,0.000600853,-0.000410042,-0.00848297
20,6,0,0,0,0,0,0,231.8,254,0,0,0,0,0,0,0,231.8,766,0,-0.000260887,0.000263824,0.000401802,0.0156707,0.00144466,0.00128761,0.00121681,0.000875511,-0.0369775,-0.00016037,0.00119293,0.0133746,-0.0207785,0.00109676,0.00168804,-0.00836853
20,7,0,0,0,0,0,0,231.8,254,0,0,0,0,0,0,0,231.8,766,0,0.00153202,0.000874176,0.00162251,0.0162429,0.00102505,0.00117317,0.00106422,0.00156216,0.0629295,-0.000122223,0.000353699,0.0124209,-0.0212744,0.00144009,0.00149731,-0.00699524
20,8,0,0,0,0,0,0,231.8,254,0,0,0,0,0,0,0,231.8,766,0,0.000769082,0.000263824,0.000325508,0.0161285,0.000262108,0.000906143,0.000873489,0.000417748,0.0375999,0.000335541,0.000849609,0.0118869,-0.0202826,0.00109676,0.00161175,-0.00840668
20,9,0,0,0,0,0,0,231.8,254,0,0,0,0,0,0,0,231.8,766,0,0.000959816,0.000721588,0.000516243,0.01548,0.000262108,0.000906143,0.00129311,0.000494041,-0.0408303,0.000945892,-0.000599976,0.0131839,-0.0220374,0.000639,0.0015736,-0.00836853
21,0,0,0,0,0,0,0,231.8,254,0,0,0,0,0,0,0,231.8,766,0,0.000997963,0.000797882,0.000401802,0.0153656,-0.000882301,0.00094429,0.00011055,-0.000383339,0.0647605,-0.000198517,0.000506287,0.0134509,-0.0213507,0.00025753,0.000543633,-0.00928406
21,1,0,0,0,0,0,0,231.8,254,0,0,0,0,0,0,0,231.8,766,0,0.0011124,0.000492706,5.84793e-05,0.0166626,-0.000348244,0.000486526,0.000759048,0.000227013,0.0435508,-0.00016037,0.000124817,0.0150531,-0.0221136,0.000677147,0.00111584,-0.00936035
21,2,0,0,0,0,0,0,231.8,254,0,0,0,0,0,0,0,231.8,766,0,0.00015873,0.00156082,0.000287361,0.0162811,0.00377163,0.00113502,0.000377579,0.000837364,-0.0560509,0.000945892,0.00161255,0.0163501,-0.0223425,0.00025753,0.00191692,-0.00852112
21,3,0,0,0,0,0,0,231.8,254,0,0,0,0,0,0,0,231.8,766,0,0.000349465,0.000759735,0.000439949,0.0159759,0.00121578,-0.000123825,0.00049202,0.000112572,-0.0114953,0.000564422,0.00126923,0.0162738,-0.0211218,0.000486412,9.57493e-06,-0.00821594
21,4,0,0,0,0,0,0,231.8,254,0,0,0,0,0,0,0,231.8,766,0,0.000463906,0.000149383,0.000134773,0.0163955,0.0029324,0.00105873,0.000224991,0.000875511,0.012461,0.000640716,-2.77711e-05,0.0163119,-0.0202444,0.000867882,0.000352898,-0.00878815
21,5,0,0,0,0,0,0,231.8,254,0,0,0,0,0,0,0,231.8,766,0,0.000387612,0.000530853,0.000249214,0.0156707,0.00178799,0.000105057,0.000453873,7.44248e-05,0.135065,-0.000351105,8.66698e-05,0.0128024,-0.0218466,0.000829735,0.000848808,-0.00970367
21,6,0,0,0,0,0,0,231.8,254,0,0,0,0,0,0,0,231.8,766,0,0.000845375,-3.20468e-06,0.00093586,0.0156326,0.00606045,0.00109688,-0.00027092,-0.000688515,0.163828,0.000945892,0.000315552,0.0131457,-0.0211218,0.000562706,0.000467339,-0.00836853
21,7,0,0,0,0,0,0,231.8,254,0,0,0,0,0,0,0,231.8,766,0,0.000692788,0.000683441,0.000363655,0.0163574,0.00487789,0.000982437,0.00133125,0.00133327,0.133768,0.000373688,0.000811462,0.0156253,-0.0192145,0.00132565,0.00142101,-0.00825409
21,8,0,0,0,0,0,0,231.8,254,0,0,0,0,0,0,0,231.8,766,0,0.00137943,0.0011412,5.84793e-05,0.0162048,0.00506863,0.00121132,0.00156013,0.000608482,0.0570548,0.000640716,-0.000332947,0.0148623,-0.0204733,0.000562706,-0.000295601,-0.00813965
21,9,0,0,0,0,0,0,231.8,254,0,0,0,0,0,0,0,231.8,766,0,0.000463906,0.00140823,0.00112659,0.0163955,0.00792965,0.000219498,0.00156013,-7.81631e-05,-0.098623,0.000411835,0.000544433,0.0139087,-0.0212744,0.00147823,0.00187878,-0.00897888
22,0,0,0,0,0,0,0,231.8,254,0,0,0,0,0,0,0,231.8,766,0,-0.000375328,0.000416412,-0.00020855,0.0150985,0.00728115,-0.000123825,-0.00065239,7.44248e-05,-0.0402581,0.0002211,0.000124817,0.0163501,-0.0226096,0.000333824,0.000848808,-0.0100089
22,1,0,0,0,0,0,0,231.8,254,0,0,0,0,0,0,0,231.8,766,0,0.0011887,-3.20468e-06,0.000783272,0.0161666,0.00705227,0.000715408,0.00049202,-0.000230751,0.0410712,0.000640716,-0.000218506,0.0182956,-0.0213507,0.000791588,-0.000524483,-0.0081778
22,2,0,0,0,0,0,0,231.8,254,0,0,0,0,0,0,0,231.8,766,0,0.000311318,0.00018753,0.000745125,0.0166244,0.0060223,0.000829849,0.00114052,0.000570335,-0.0738274,0.00174698,0.0015744,0.0152056,-0.0199011,0.00113491,0.000352898,-0.00890259
22,3,0,0,0,0,0,0,231.8,254,0,0,0,0,0,0,0,231.8,766,0,-0.000260887,-0.000155793,0.000363655,0.01651,0.00766262,0.000639114,0.000759048,-7.81631e-05,-0.0350701,-0.00141922,-0.000485535,0.0155871,-0.0209311,0.000371971,-0.000143013,-0.00951294
22,4,0,0,0,0,0,0,231.8,254,0,0,0,0,0,0,0,231.8,766,0,0.000692788,0.000759735,0.00154621,0.017044,0.00514492,0.000410232,0.00106422,-0.000383339,0.0542701,0.00125107,-0.000905151,0.0125735,-0.0197485,0.0012112,0.00103954,-0.00806335
22,5,0,0,0,0,0,0,231.8,254,0,0,0,0,0,0,0,231.8,766,0,0.000235024,0.000301971,0.00150806,0.0165863,0.0100277,0.000867996,0.00098793,0.000913658,-0.0634515,0.000831451,0.0010022,0.0102084,-0.0199011,0.000181236,0.00119213,-0.0093222
22,6,0,0,0,0,0,0,231.8,254,0,0,0,0,0,0,0,231.8,766,0,6.14207e-06,0.000111236,0.00116474,0.0163192,0.00907406,0.00109688,0.00133125,0.000608482,-0.065397,-0.000579987,0.000353699,0.0126498,-0.0204733,0.00147823,0.000543633,-0.00901703
22,7,0,0,0,0,0,0,231.8,254,0,0,0,0,0,0,0,231.8,766,0,0.000654641,0.000645294,-0.00020855,0.0156707,0.0119351,0.00132576,0.00102608,0.000227013,-0.0309502,0.000640716,-0.00220215,0.0190585,-0.0211218,0.000486412,0.00119213,-0.00772003
22,8,0,0,0,0,0,0,231.8,254,0,0,0,0,0,0,0,231.8,766,0,0.00015873,0.000149383,5.84793e-05,0.0162048,0.00854,-9.38424e-06,-0.000118332,-0.000383339,0.018679,0.000335541,1.03759e-05,0.0202411,-0.0221136,0.000600853,0.000848808,-0.00836853
22,9,0,0,0,0,0,0,231.8,254,0,0,0,0,0,0,0,231.8,766,0,-0.000146446,0.000225677,0.00127918,0.0158615,0.00640377,0.00174538,0.000835342,0.00026516,0.00799782,0.00102219,0.000239258,0.0170367,-0.0210837,0.00140194,-6.6719e-05,-0.00741486
23,0,0,0,0,0,0,0,231.8,254,0,0,0,0,0,0,0,231.8,766,0,0.00126499,0.000645294,0.00143177,0.0176162,0.00834927,0.000791702,0.000568314,0.000608482,-0.0571191,0.00071701,0.00237549,0.0199359,-0.0205115,0.00151638,0.00203136,-0.00848297
23,1,0,0,0,0,0,0,231.8,254,0,0,0,0,0,0,0,231.8,766,0,0.000463906,0.000683441,0.000249214,0.0164718,0.00781521,-0.00031456,0.000759048,0.000227013,0.0392783,0.0002211,-0.000332947,0.020737,-0.0222281,0.000600853,0.00069622,-0.00882629
23,2,0,0,0,0,0,0,231.8,254,0,0,0,0,0,0,0,231.8,766,0,-0.000146446,-0.000117646,0.000592537,0.0151748,0.00503048,0.000600967,0.000682754,0.000227013,0.0113166,-4.59291e-05,1.03759e-05,0.0193255,-0.0226477,0.00025753,0.00103954,-0.00844482
23,3,0,0,0,0,0,0,231.8,254,0,0,0,0,0,0,0,231.8,766,0,0.000845375,0.000836029,0.000859566,0.0160141,0.00583157,0.000639114,-0.000118332,0.000303307,-0.0465905,0.00102219,0.000773315,0.0163119,-0.0217703,0.000867882,0.00020031,-0.00844482
23,4,0,0,0,0,0,0,231.8,254,0,0,0,0,0,0,0,231.8,766,0,0.000807228,0.000225677,0.00116474,0.0166626,0.00453457,0.00105873,0.00110237,0.000684776,0.0549567,0.000755157,0.000506287,0.0176471,-0.02013,0.00205044,0.000848808,-0.00901703
23,5,0,0,0,0,0,0,231.8,254,0,0,0,0,0,0,0,231.8,766,0,-0.000337181,0.000645294,0.000516243,0.0166626,0.00449642,0.000715408,0.000835342,-0.000230751,0.028292,0.00136551,0.00123108,0.011658,-0.0209692,0.000982323,0.00172619,-0.00943665
23,6,0,0,0,0,0,0,231.8,254,0,0,0,0,0,0,0,231.8,766,0,0.000692788,0.000301971,0.000363655,0.0160141,0.00171169,0.000524673,0.000759048,0.000150719,-0.0475823,0.000793304,1.03759e-05,0.00967434,-0.02116,0.0012875,0.00138287,-0.00974182
23,7,0,0,0,0,0,0,231.8,254,0,0,0,0,0,0,0,231.8,766,0,0.00172276,0.00106491,0.000783272,0.0161666,0.00335201,0.00140205,0.00106422,0.000951805,0.062281,0.000755157,0.00145996,0.00883511,-0.0219992,0.00105862,0.00107769,-0.00855927
23,8,0,0,0,0,0,0,231.8,254,0,0,0,0,0,0,0,231.8,766,0,0.000311318,0.00137009,0.00093586,0.0162811,0.00590786,0.00102058,0.00102608,0.000150719,0.0398887,0.000945892,0.00096405,0.00856808,-0.0205878,0.0012875,0.00123028,-0.00825409
23,9,0,0,0,0,0,0,231.8,254,0,0,0,0,0,0,0,231.8,766,0,0.000616494,-0.000155793,-9.41086e-05,0.0150985,0.00648006,0.00128761,0.00129311,0.00026516,-0.0578439,0.000144806,0.000201111,0.00879696,-0.022457,0.000600853,0.000734367,-0.00852112
24,0,0,0,0,0,0,0,231.8,254,0,0,0,0,0,0,0,231.8,766,0,-0.000451622,0.000569,0.000859566,0.0160904,0.00468716,0.00056282,0.000949783,0.00110439,-0.0116479,0.000793304,1.03759e-05,0.0140612,-0.0208167,0.000791588,0.00058178,-0.00737671
24,1,0,0,0,0,0,0,231.8,254,0,0,0,0,0,0,0,231.8,766,0,-0.00022274,0.000797882,-1.78147e-05,0.0165863,0.00419125,0.000181351,0.00060646,-0.000574074,0.004412,0.000869598,0.000353699,0.0155108,-0.0213507,0.000677147,0.00145916,-0.00707153
24,2,0,0,0,0,0,0,231.8,254,0,0,0,0,0,0,0,231.8,766,0,0.000196877,0.000645294,0.000706978,0.0159378,0.00255093,0.000829849,0.000797195,0.000646629,0.0674689,0.000831451,-0.000142212,0.0131457,-0.0230292,0.000791588,0.000467339,-0.00718597
24,3,0,0,0,0,0,0,231.8,254,0,0,0,0,0,0,0,231.8,766,0,0.0005402,0.0011412,0.00112659,0.0174636,0.00316128,0.00094429,0.000453873,0.00125698,-0.0246178,0.000488129,0.000773315,0.0170749,-0.0207785,0.00105862,0.000810661,-0.00875
24,4,0,0,0,0,0,0,231.8,254,0,0,0,0,0,0,0,231.8,766,0,6.14207e-06,0.000149383,0.00135548,0.0170822,0.000414696,0.00124947,0.00163643,0.000112572,-0.000585251,0.0014418,4.85228e-05,0.0184481,-0.0205496,0.00151638,0.00115398,-0.00726227
24,5,0,0,0,0,0,0,231.8,254,0,0,0,0,0,0,0,231.8,766,0,0.000654641,0.00125565,-1.78147e-05,0.0159378,0.00106319,0.000600967,-0.000614243,0.000341454,0.0668586,0.000411835,-0.00117218,0.0126117,-0.0208548,0.000715294,0.00111584,-0.00955109
24,6,0,0,0,0,0,0,231.8,254,0,0,0,0,0,0,0,231.8,766,0,0.00015873,-0.00030838,-0.000628166,0.0159759,0.00312313,0.000257645,0.00163643,0.000913658,-0.0267159,0.000373688,0.000773315,0.0157016,-0.0237158,0.00117306,0.00123028,-0.00947479
24,7,0,0,0,0,0,0,231.8,254,0,0,0,0,0,0,0,231.8,766,0,-0.000184593,0.00129379,0.000897713,0.015747,0.00373348,0.00136391,0.00117867,0.000379601,0.00620491,0.000373688,-0.000218506,0.0154727,-0.0202063,0.00136379,0.000886955,-0.00863556
24,8,0,0,0,0,0,0,231.8,254,0,0,0,0,0,0,0,231.8,766,0,0.00115055,0.000912323,0.00093586,0.0172348,0.00323757,0.000486526,0.000644607,0.00125698,0.0804771,0.000640716,0.000849609,0.0157779,-0.0202826,0.00243191,0.0010014,-0.00844482
24,9,0,0,0,0,0,0,231.8,254,0,0,0,0,0,0,0,231.8,766,0,-0.00102383,-0.000155793,0.00093586,0.0171203,0.00453457,0.0014402,0.00102608,0.000227013,-0.0279748,0.00186142,0.000201111,0.0170749,-0.0216177,0.00113491,0.000619926,-0.00802521
25,0,0,0,0,0,0,0,231.8,254,0,0,0,0,0,0,0,231.8,766,0,0.000730935,0.00095047,-0.000513725,0.0162048,0.00312313,0.00109688,0.00144569,0.00121883,0.0044883,0.000793304,4.85228e-05,0.0197833,-0.0216559,0.00124935,0.0010014,-0.00882629
25,1,0,0,0,0,0,0,231.8,254,0,0,0,0,0,0,0,231.8,766,0,0.000616494,0.000683441,0.00139362,0.0169296,0.00373348,-4.75312e-05,0.00186531,0.00076107,0.0870383,0.000526275,-0.000104065,0.0166171,-0.0212363,0.000791588,0.00134472,-0.00798706
25,2,0,0,0,0,0,0,231.8,254,0,0,0,0,0,0,0,231.8,766,0,0.000196877,0.000721588,0.00188953,0.0166244,0.00270351,0.00105873,0.00140755,0.000684776,-0.0276696,0.000373688,0.000277405,0.0114291,-0.0225714,0.00105862,0.000848808,-0.00813965
25,3,0,0,0,0,0,0,231.8,254,0,0,0,0,0,0,0,231.8,766,0,0.000235024,-0.000232087,0.000706978,0.0169677,0.00190243,0.000715408,0.000911636,0.00076107,-0.036596,0.000869598,0.000697021,0.014786,-0.022724,0.000562706,0.000848808,-0.00867371
25,4,0,0,0,0,0,0,231.8,254,0,0,0,0,0,0,0,231.8,766,0,0.00015873,0.000836029,0.000745125,0.0171203,0.00510677,0.00117317,0.00114052,0.00106625,-0.00420921,0.000755157,-0.000523682,0.0143664,-0.0208929,0.000753441,0.00069622,-0.00722412
25,5,0,0,0,0,0,0,231.8,254,0,0,0,0,0,0,0,231.8,766,0,0.000311318,0.000416412,0.000630684,0.0161285,0.00346645,0.00056282,0.000644607,7.44248e-05,0.0673545,-0.000274811,0.00058258,0.0141375,-0.0209692,0.00151638,0.000543633,-0.0103903
25,6,0,0,0,0,0,0,231.8,254,0,0,0,0,0,0,0,231.8,766,0,0.000692788,0.000912323,0.000363655,0.0165481,0.000681725,0.000105057,0.00011055,0.000799217,0.171305,0.000335541,0.00058258,0.0169223,-0.0211981,-4.76455e-05,0.00123028,-0.0099707
25,7,0,0,0,0,0,0,231.8,254,0,0,0,0,0,0,0,231.8,766,0,-0.000909385,0.000340118,9.66262e-05,0.0155944,-0.00332371,0.000524673,0.000873489,-0.00087925,0.145098,0.000907745,-0.000905151,0.0141757,-0.0218848,0.000791588,-0.000257454,-0.00878815
25,8,0,0,0,0,0,0,231.8,254,0,0,0,0,0,0,0,231.8,766,0,0.000997963,0.000874176,0.000859566,0.016777,-0.00408665,0.00121132,0.00163643,0.000379601,0.111185,-0.000236664,0.000391846,0.0158923,-0.0205496,0.000677147,0.000391045,-0.00798706
25,9,0,0,0,0,0,0,231.8,254,0,0,0,0,0,0,0,231.8,766,0,8.2436e-05,0.00018753,0.000974007,0.0171585,-0.00332371,0.000867996,0.00117867,0.00121883,-0.0305306,0.00117477,0.0010022,0.0153201,-0.0215033,0.001936,0.00138287,-0.00859741
26,0,0,0,0,0,0,0,231.8,254,0,0,0,0,0,0,0,231.8,766,0,-3.20049e-05,-4.13517e-05,0.00124104,0.0164718,0.000643578,0.00132576,0.000415726,0.000341454,-0.0991952,0.000945892,-0.000256653,0.0138705,-0.0216559,0.000944176,0.000352898,-0.00844482
26,1,0,0,0,0,0,0,231.8,254,0,0,0,0,0,0,0,231.8,766,0,0.000616494,-0.000117646,-0.000895195,0.0172729,0.00243649,0.000333939,0.000415726,0.000188866,0.0245918,-0.000465546,-0.000790711,0.00986507,-0.0225714,0.000867882,0.000886955,-0.00859741
26,2,0,0,0,0,0,0,231.8,254,0,0,0,0,0,0,0,231.8,766,0,8.2436e-05,-0.000804291,0.000821419,0.0163192,-0.00156895,0.00056282,0.00117867,0.000494041,-0.00787132,0.000984039,0.000239258,0.0120395,-0.0215796,0.00132565,0.000848808,-0.00821594
26,3,0,0,0,0,0,0,231.8,254,0,0,0,0,0,0,0,231.8,766,0,0.000692788,0.000797882,0.000516243,0.0157089,-0.000538978,0.00109688,0.000759048,0.00114254,-0.0865685,0.000144806,-0.000332947,0.0118106,-0.021694,0.000944176,0.00210766,-0.00871185
26,4,0,0,0,0,0,0,231.8,254,0,0,0,0,0,0,0,231.8,766,0,6.14207e-06,0.00140823,0.00116474,0.0168151,-0.00122562,0.0014402,0.00121681,0.00129513,0.0313056,0.00128921,0.000315552,0.0148242,-0.0219611,0.00201229,0.00164989,-0.00886444
26,5,0,0,0,0,0,0,231.8,254,0,0,0,0,0,0,0,231.8,766,0,0.00134129,0.000759735,0.000592537,0.0165481,-0.00366703,-0.000390854,-0.000156479,0.000875511,0.00876076,0.000907745,0.00046814,0.0144046,-0.0221518,0.000867882,-0.000333748,-0.00848297
26,6,0,0,0,0,0,0,231.8,254,0,0,0,0,0,0,0,231.8,766,0,0.000769082,0.000912323,9.66262e-05,0.0162048,-0.00362888,-0.00103935,7.24029e-05,0.0010281,-0.0896966,0.00113663,0.000315552,0.0125735,-0.0224951,0.00025753,8.58689e-05,-0.00875
26,7,0,0,0,0,0,0,231.8,254,0,0,0,0,0,0,0,231.8,766,0,0.000425759,0.000645294,0.00127918,0.0160522,-0.000806007,0.00056282,0.000644607,0.00133327,-0.0383508,0.000488129,-2.77711e-05,0.011658,-0.0207785,0.000715294,0.000848808,-0.00775818
26,8,0,0,0,0,0,0,231.8,254,0,0,0,0,0,0,0,231.8,766,0,0.000463906,0.00110306,0.000592537,0.0162048,-0.000882301,0.000486526,0.00049202,0.000913658,-0.0182092,0.000373688,0.000620727,0.0141375,-0.0225714,0.00105862,0.00115398,-0.00806335
26,9,0,0,0,0,0,0,231.8,254,0,0,0,0,0,0,0,231.8,766,0,0.00172276,0.00156082,0.000859566,0.0171585,0.00129208,0.000829849,0.000224991,0.000608482,0.0422157,0.00117477,0.00058258,0.016083,-0.0210837,0.00170712,4.77219e-05,-0.00775818
27,0,0,0,0,0,0,0,231.8,254,0,0,0,0,0,0,0,231.8,766,0,-0.000680503,0.00095047,0.000439949,0.0154037,0.000910606,0.00151649,-0.000156479,-0.000230751,-0.0486504,0.00102219,4.85228e-05,0.0145953,-0.0221518,-0.000200233,-2.8572e-05,-0.00852112
27,1,0,0,0,0,0,0,231.8,254,0,0,0,0,0,0,0,231.8,766,0,0.000463906,-0.00019394,-0.000132256,0.0159759,0.00434383,0.000181351,0.00098793,0.000875511,-0.0145089,0.000488129,-0.00067627,0.0148623,-0.0215033,0.0012112,0.00069622,-0.00924591
27,2,0,0,0,0,0,0,231.8,254,0,0,0,0,0,0,0,231.8,766,0,0.0011124,0.000607147,0.000783272,0.0169677,0.00541195,0.00128761,0.00129311,0.00152401,0.0514472,0.000984039,0.000925903,0.0134127,-0.0221136,0.00201229,0.00103954,-0.00779633
27,3,0,0,0,0,0,0,231.8,254,0,0,0,0,0,0,0,231.8,766,0,0.00103611,3.49423e-05,0.00093586,0.0166244,0.00613674,0.000982437,0.000568314,0.000875511,-0.0365578,0.000793304,0.0010022,0.00997951,-0.0213126,0.000562706,0.000886955,-0.00783447
27,4,0,0,0,0,0,0,231.8,254,0,0,0,0,0,0,0,231.8,766,0,0.000120583,0.000111236,-0.00150555,0.0163192,0.0060223,0.000410232,0.000720901,0.000188866,-0.00409477,-0.000961456,0.000391846,0.0127642,-0.0217322,0.000143089,-0.00102039,-0.00829224
27,5,0,0,0,0,0,0,231.8,254,0,0,0,0,0,0,0,231.8,766,0,-0.000451622,0.000569,0.000401802,0.0156326,0.00911221,2.87627e-05,0.000949783,0.000455895,0.0721992,0.000449982,-0.000523682,0.0181811,-0.0221136,6.67954e-05,0.00020031,-0.00825409
27,6,0,0,0,0,0,0,231.8,254,0,0,0,0,0,0,0,231.8,766,0,0.00130314,0.000454559,0.000516243,0.016777,0.0149105,0.00124947,0.00148384,0.00137142,-0.0333916,0.00113663,0.000697021,0.0186389,-0.0206641,0.00178341,0.00191692,-0.00787262
27,7,0,0,0,0,0,0,231.8,254,0,0,0,0,0,0,0,231.8,766,0,0.00115055,0.000340118,-9.41086e-05,0.0155182,0.0118969,0.000333939,0.000759048,-0.000268898,0.00181801,0.000373688,0.000353699,0.0142901,-0.022724,0.000791588,-0.000219307,-0.00916962
27,8,0,0,0,0,0,0,231.8,254,0,0,0,0,0,0,0,231.8,766,0,0.00103611,0.00171341,0.00173695,0.0167007,0.0113247,0.00140205,0.0013694,0.000913658,0.0877631,0.000793304,0.0010022,0.014252,-0.0213507,0.000906029,0.00176434,-0.00867371
27,9,0,0,0,0,0,0,231.8,254,0,0,0,0,0,0,0,231.8,766,0,0.00122685,0.00144638,0.0010503,0.01651,0.0136517,0.00113502,0.00098793,7.44248e-05,-0.0309121,-7.78213e-06,0.0010022,0.0155108,-0.0201682,0.00124935,0.00153545,-0.00977997
28,0,0,0,0,0,0,0,231.8,254,0,0,0,0,0,0,0,231.8,766,0,0.000425759,3.49423e-05,0.000745125,0.0165481,0.0143383,-0.000276413,0.000263138,0.00121883,-0.0371682,3.03648e-05,0.000239258,0.0173037,-0.0213507,2.86484e-05,-0.000448189,-0.00890259
28,1,0,0,0,0,0,0,231.8,254,0,0,0,0,0,0,0,231.8,766,0,-0.000260887,0.00125565,0.000325508,0.0169296,0.016055,0.0014402,0.000301285,0.000379601,-0.00489586,0.00117477,-2.77711e-05,0.0201266,-0.0219611,0.00124935,0.000810661,-0.00886444
28,2,0,0,0,0,0,0,231.8,254,0,0,0,0,0,0,0,231.8,766,0,6.14207e-06,-0.00068985,-0.000284843,0.0161285,0.0091885,0.000333939,0.00060646,0.000417748,0.0665534,-0.00103775,0.000697021,0.0149768,-0.0213507,0.00109676,-6.6719e-05,-0.0093222
28,3,0,0,0,0,0,0,231.8,254,0,0,0,0,0,0,0,231.8,766,0,-0.000413475,0.000301971,0.000897713,0.0154419,0.00934109,0.00109688,0.000873489,0.000455895,0.17058,0.000526275,1.03759e-05,0.0130694,-0.021427,0.000486412,0.00058178,-0.00783447
28,4,0,0,0,0,0,0,231.8,254,0,0,0,0,0,0,0,231.8,766,0,0.00187534,0.000912323,0.000439949,0.0173492,0.00678524,-8.56782e-05,0.00121681,0.0016766,0.14567,0.00136551,0.00184143,0.0144427,-0.0199774,0.000982323,0.00130657,-0.00783447
28,5,0,0,0,0,0,0,231.8,254,0,0,0,0,0,0,0,231.8,766,0,8.2436e-05,0.000454559,-0.000246697,0.0165863,0.00522121,0.000600967,0.000568314,-0.000650368,0.112826,-0.000274811,-0.000447388,0.0110095,-0.0211218,0.000600853,0.00172619,-0.00760559
28,6,0,0,0,0,0,0,231.8,254,0,0,0,0,0,0,0,231.8,766,0,0.000463906,-0.000727997,-0.00020855,0.015213,0.00522121,0.000219498,-3.89107e-06,7.44248e-05,-0.0278603,-0.000122223,-2.77711e-05,0.0114291,-0.0221899,-9.49856e-06,0.0010014,-0.00798706
28,7,0,0,0,0,0,0,231.8,254,0,0,0,0,0,0,0,231.8,766,0,0.000425759,0.000530853,0.00131733,0.0161666,0.00586971,0.00113502,0.00159828,0.000379601,-0.0953042,0.00125107,-0.000104065,0.00944546,-0.0207785,0.000562706,0.000925102,-0.00741486
28,8,0,0,0,0,0,0,231.8,254,0,0,0,0,0,0,0,231.8,766,0,0.00122685,0.00095047,0.000859566,0.0159759,0.00442013,0.00113502,0.000263138,0.000837364,0.028292,0.000564422,0.000544433,0.012955,-0.0208929,0.00124935,0.00153545,-0.00638489
28,9,0,0,0,0,0,0,231.8,254,0,0,0,0,0,0,0,231.8,766,0,0.00130314,0.00110306,0.000859566,0.0169296,0.00319942,0.000372085,0.00133125,0.000150719,-0.00462883,0.000297394,0.00104034,0.013222,-0.0216177,0.00117306,0.00153545,-0.00913147
29,0,0,0,0,0,0,0,231.8,254,0,0,0,0,0,0,0,231.8,766,0,0.000845375,0.000149383,0.00116474,0.0164718,0.00419125,0.000410232,-0.000309067,-0.000154457,-0.0826394,0.00132736,0.0016507,0.0143664,-0.021427,0.000944176,-0.000753365,-0.00684265
29,1,0,0,0,0,0,0,231.8,254,0,0,0,0,0,0,0,231.8,766,0,0.000807228,0.00144638,0.00055439,0.0158615,0.000948753,0.000906143,0.00140755,-0.000307045,0.0340522,0.000907745,0.0015744,0.0144809,-0.0207404,6.67954e-05,0.00184063,-0.00966553
29,2,0,0,0,0,0,0,231.8,254,0,0,0,0,0,0,0,231.8,766,0,0.000235024,-0.000117646,-9.41086e-05,0.0155182,-0.00103489,-0.000238266,0.000759048,0.000112572,0.0112403,-0.000427399,0.00115479,0.0152819,-0.0218085,0.000715294,-0.000219307,-0.00920776
29,3,0,0,0,0,0,0,231.8,254,0,0,0,0,0,0,0,231.8,766,0,0.000654641,0.000492706,0.00055439,0.0159759,0.000300255,-0.000734177,0.000759048,0.00118069,-0.0852715,0.0002211,0.00123108,0.0198214,-0.0213126,0.000295677,0.00130657,-0.00970367
29,4,0,0,0,0,0,0,231.8,254,0,0,0,0,0,0,0,231.8,766,0,0.000502053,0.000683441,-0.000170403,0.0165481,-0.000500832,0.000486526,0.000148697,-0.000154457,-0.0350701,0.000526275,0.00107849,0.0173037,-0.0207785,0.00025753,0.000543633,-0.00882629
29,5,0,0,0,0,0,0,231.8,254,0,0,0,0,0,0,0,231.8,766,0,0.000883522,0.00095047,0.000516243,0.015213,-0.000500832,0.00155464,0.00114052,0.00076107,-0.0142037,-0.000274811,-2.77711e-05,0.0132983,-0.0207404,0.00105862,0.00203136,-0.00852112
29,6,0,0,0,0,0,0,231.8,254,0,0,0,0,0,0,0,231.8,766,0,0.00149387,0.000797882,0.000325508,0.0160522,-0.00141636,0.000410232,0.00114052,0.000684776,0.0441993,-8.40761e-05,0.000773315,0.0134509,-0.0209311,0.00132565,0.00229839,-0.0101996
29,7,0,0,0,0,0,0,231.8,254,0,0,0,0,0,0,0,231.8,766,0,0.000502053,-7.94986e-05,-0.00032299,0.0148315,-0.000806007,-4.75312e-05,-0.000690537,0.000227013,-0.0449502,0.000488129,-0.0002948,0.0125735,-0.0218085,0.000639,0.0010014,-0.0102759
29,8,0,0,0,0,0,0,231.8,254,0,0,0,0,0,0,0,231.8,766,0,0.000654641,3.49423e-05,0.000783272,0.0161666,0.000643578,0.00132576,0.00167458,0.000722923,-0.00909203,0.00140366,0.00130737,0.0163882,-0.0202826,0.000677147,0.00149731,-0.0068808
29,9,0,0,0,0,0,0,231.8,254,0,0,0,0,0,0,0,231.8,766,0,0.00157017,0.000874176,0.000668831,0.0159759,0.000567284,0.000524673,0.00060646,0.00076107,0.0520194,-0.000351105,0.000315552,0.0142901,-0.0207404,0.00102047,0.000619926,-0.0075293
30,0,0,0,0,0,0,0,231.8,254,0,0,0,0,0,0,0,231.8,766,0,0.000235024,-4.13517e-05,0.000363655,0.015213,-0.00225559,-8.56782e-05,0.000797195,0.000227013,-0.0362145,0.000335541,0.000544433,0.0111239,-0.0218466,0.000867882,0.000314751,-0.00897888
30,1,0,0,0,0,0,0,231.8,254,0,0,0,0,0,0,0,231.8,766,0,0.000463906,0.00110306,0.000363655,0.0156326,-0.000806007,0.000105057,-8.0185e-05,-4.00161e-05,0.00109322,0.000526275,-2.77711e-05,0.014519,-0.0229147,-0.000200233,0.00119213,-0.00829224
30,2,0,0,0,0,0,0,231.8,254,0,0,0,0,0,0,0,231.8,766,0,0.00137943,-0.00019394,0.000897713,0.0166244,-0.00198856,0.000181351,0.000949783,0.000532188,0.0739921,0.00125107,0.00134552,0.0133746,-0.0212744,-0.000276527,0.00119213,-0.00829224
30,3,0,0,0,0,0,0,231.8,254,0,0,0,0,0,0,0,231.8,766,0,0.000502053,0.000569,0.00146992,0.0160904,0.000300255,0.000600967,0.000797195,-0.00164219,-0.029844,0.00125107,0.00104034,0.0142901,-0.0205115,0.00105862,-0.00056263,-0.00878815
30,4,0,0,0,0,0,0,231.8,254,0,0,0,0,0,0,0,231.8,766,0,0.00145573,0.000759735,0.00127918,0.0168151,-0.00175968,6.69097e-05,0.00102608,0.00026516,0.0026191,0.000411835,0.00214661,0.0121157,-0.0202063,0.00132565,0.00115398,-0.00958923
30,5,0,0,0,0,0,0,231.8,254,0,0,0,0,0,0,0,231.8,766,0,0.000196877,0.000683441,0.000897713,0.0157852,0.00129208,0.00147835,0.000949783,-0.000268898,0.0839866,0.000373688,0.00058258,0.0134127,-0.021427,0.000867882,0.000848808,-0.00886444
30,6,0,0,0,0,0,0,231.8,254,0,0,0,0,0,0,0,231.8,766,0,-0.000413475,7.30893e-05,0.000287361,0.0149459,0.000948753,0.000715408,0.000186844,0.000684776,-0.0285851,0.000373688,-0.000485535,0.0175708,-0.0223044,0.000295677,-0.000448189,-0.00836853
30,7,0,0,0,0,0,0,231.8,254,0,0,0,0,0,0,0,231.8,766,0,0.000769082,0.00106491,-0.000170403,0.0158615,0.00392422,0.000791702,0.00171272,0.00118069,-0.0343453,0.000564422,0.000887756,0.0175708,-0.0210074,0.000295677,0.000238457,-0.00871185
30,8,0,0,0,0,0,0,231.8,254,0,0,0,0,0,0,0,231.8,766,0,0.000311318,0.00106491,0.000974007,0.0147552,0.00621304,0.000753555,-0.000194626,0.000799217,-0.00340813,0.000869598,-0.00140106,0.0152819,-0.0206259,0.000715294,-0.000905952,-0.0075293
30,9,0,0,0,0,0,0,231.8,254,0,0,0,0,0,0,0,231.8,766,0,0.000387612,0.000988617,0.0010503,0.0165863,0.0073193,0.000600967,0.00049202,0.000188866,0.0429786,0.000945892,0.000697021,0.0147097,-0.0206641,0.00113491,0.00142101,-0.00901703
31,0,0,0,0,0,0,0,231.8,254,0,0,0,0,0,0,0,231.8,766,0,-0.000184593,-0.000270233,-0.000857048,0.0150985,0.00575527,0.000257645,0.000568314,0.000150719,0.0291694,0.000526275,0.000353699,0.0165026,-0.0226096,-0.000123939,-0.000791511,-0.00829224
31,1,0,0,0,0,0,0,231.8,254,0,0,0,0,0,0,0,231.8,766,0,0.000807228,0.000797882,0.00055439,0.0156326,0.00232204,0.000791702,3.42559e-05,0.00076107,-0.0374734,0.000526275,0.000315552,0.0190585,-0.0216177,0.000982323,0.00111584,-0.00882629
31,2,0,0,0,0,0,0,231.8,254,0,0,0,0,0,0,0,231.8,766,0,0.00145573,0.000912323,0.00127918,0.0170059,0.00358089,0.000600967,0.00110237,0.00076107,0.052935,0.000488129,0.000735168,0.0153582,-0.0213507,0.000600853,0.00119213,-0.00829224
31,3,0,0,0,0,0,0,231.8,254,0,0,0,0,0,0,0,231.8,766,0,0.0005402,0.000225677,0.000783272,0.0159378,0.0040768,0.000410232,0.00011055,-0.000154457,0.026461,0.00186142,0.000658874,0.0112384,-0.0210837,0.000639,-0.000448189,-0.00764374
31,4,0,0,0,0,0,0,231.8,254,0,0,0,0,0,0,0,231.8,766,0,-0.00022274,0.000416412,0.00055439,0.0149078,0.00857815,0.000448379,3.42559e-05,-0.000726662,-0.0347649,0.000373688,-0.000905151,0.0136035,-0.0211218,-9.49856e-06,0.000543633,-0.00859741
31,5,0,0,0,0,0,0,231.8,254,0,0,0,0,0,0,0,231.8,766,0,0.0011887,3.49423e-05,0.000821419,0.0161285,0.00442013,0.000410232,-3.89107e-06,0.00076107,0.063578,0.000526275,0.00130737,0.0120395,-0.0221899,-0.00061985,0.000162163,-0.00905518
31,6,0,0,0,0,0,0,231.8,254,0,0,0,0,0,0,0,231.8,766,0,0.000311318,0.00110306,0.00177509,0.0162429,0.0079678,0.000867996,0.00011055,3.62778e-05,0.0375999,0.00113663,0.000620727,0.0123446,-0.0207785,0.00201229,-0.000143013,-0.00821594
31,7,0,0,0,0,0,0,231.8,254,0,0,0,0,0,0,0,231.8,766,0,0.00141758,0.000683441,0.000516243,0.0164718,0.00915035,-0.000123825,-0.000232773,0.000837364,-0.0398766,0.000259247,0.000811462,0.014252,-0.0213889,0.000181236,0.000429192,-0.00844482
31,8,0,0,0,0,0,0,231.8,254,0,0,0,0,0,0,0,231.8,766,0,0.000235024,0.000874176,0.000821419,0.0158996,0.00636562,0.000791702,0.00110237,-0.000535927,0.0658286,0.00163254,0.000124817,0.0117343,-0.0214651,0.000486412,-0.000371895,-0.00833038
31,9,0,0,0,0,0,0,231.8,254,0,0,0,0,0,0,0,231.8,766,0,0.0005402,0.00201858,0.000974007,0.0169296,0.00785336,0.00166908,0.000873489,0.000837364,0.041796,0.00109848,0.000887756,0.013222,-0.0205496,0.000333824,0.000124016,-0.00825409
32,0,0,0,0,0,0,0,231.8,254,0,0,0,0,0,0,0,231.8,766,0,-0.000146446,-7.94986e-05,0.000745125,0.0169677,0.00483974,0.000448379,0.00121681,0.000227013,-0.0553262,0.000831451,0.000201111,0.0140612,-0.0208548,0.00105862,0.000238457,-0.00985626
32,1,0,0,0,0,0,0,231.8,254,0,0,0,0,0,0,0,231.8,766,0,0.000349465,-0.000384674,0.000401802,0.0167007,0.0078915,0.00109688,0.00133125,0.00106625,-0.0106561,0.00117477,0.000544433,0.0143664,-0.0218848,0.0012112,0.00123028,-0.00791077
32,2,0,0,0,0,0,0,231.8,254,0,0,0,0,0,0,0,231.8,766,0,0.00115055,0.00156082,0.000211067,0.0160141,0.0109051,0.00056282,-0.000614243,0.000646629,0.013224,-8.40761e-05,0.000811462,0.0171511,-0.0216559,0.00113491,-0.00056263,-0.00916962
32,3,0,0,0,0,0,0,231.8,254,0,0,0,0,0,0,0,231.8,766,0,6.14207e-06,0.000492706,0.00146992,0.0161285,0.00689968,0.00128761,0.00190346,0.000494041,0.133921,0.00071701,0.000124817,0.0164264,-0.0205878,0.000944176,0.000467339,-0.00791077
32,4,0,0,0,0,0,0,231.8,254,0,0,0,0,0,0,0,231.8,766,0,0.000311318,0.0011412,-0.000857048,0.0164718,0.00594601,-4.75312e-05,0.000873489,0.000837364,0.161883,0.00132736,-0.000447388,0.0128024,-0.0219992,0.000486412,0.000963249,-0.00833038
32,5,0,0,0,0,0,0,231.8,254,0,0,0,0,0,0,0,231.8,766,0,0.0005402,0.000912323,0.00112659,0.0166244,0.00483974,0.000982437,0.00106422,0.000913658,0.133234,0.00163254,-0.000142212,0.0125735,-0.0213889,0.00224117,0.000848808,-0.00867371
32,6,0,0,0,0,0,0,231.8,254,0,0,0,0,0,0,0,231.8,766,0,0.00145573,0.00171341,0.00177509,0.0158615,0.00392422,0.00155464,0.000911636,0.000951805,0.0577033,0.00170883,8.66698e-05,0.0139468,-0.0208929,0.00155453,-0.000257454,-0.00730042
32,7,0,0,0,0,0,0,231.8,254,0,0,0,0,0,0,0,231.8,766,0,0.00107426,0.000912323,0.000516243,0.0163574,0.000834313,0.000829849,0.000682754,0.000150719,-0.0970208,0.000564422,0.00104034,0.0151675,-0.0210455,0.00102047,0.000429192,-0.00882629
32,8,0,0,0,0,0,0,231.8,254,0,0,0,0,0,0,0,231.8,766,0,0.000311318,0.000836029,0.000516243,0.0157852,0.00247463,0.000372085,0.000301285,-0.000421486,-0.0389993,0.00128921,-6.59181e-05,0.014519,-0.0225333,0.000104942,-0.000486336,-0.00886444
32,9,0,0,0,0,0,0,231.8,254,0,0,0,0,0,0,0,231.8,766,0,0.000425759,-0.000499115,-0.000666313,0.0164337,0.00323757,0.000181351,0.000415726,-1.86916e-06,0.041262,0.000106659,-0.000371094,0.0129168,-0.0218466,0.000562706,0.000391045,-0.00825409
33,0,0,0,0,0,0,0,231.8,254,0,0,0,0,0,0,0,231.8,766,0,0.000845375,0.000721588,0.000592537,0.0149459,0.00354275,0.000333939,0.000148697,-0.00011631,-0.0743233,0.00109848,0.000887756,0.010628,-0.0216177,0.000600853,-0.000104866,-0.00920776
33,1,0,0,0,0,0,0,231.8,254,0,0,0,0,0,0,0,231.8,766,0,-0.000337181,0.0012175,0.000516243,0.0163192,0.00274166,0.000219498,0.000797195,-0.000459633,-0.0354897,0.000182953,-0.000142212,0.0161212,-0.0220374,0.000371971,0.000124016,-0.00833038
33,2,0,0,0,0,0,0,231.8,254,0,0,0,0,0,0,0,231.8,766,0,0.00015873,0.00125565,0.000783272,0.0168914,0.00117764,-9.38424e-06,0.000720901,0.000989952,0.0538123,0.00193771,0.000735168,0.0188296,-0.0207785,0.00182156,-0.00018116,-0.00768188
33,3,0,0,0,0,0,0,231.8,254,0,0,0,0,0,0,0,231.8,766,0,0.000654641,0.00167526,0.00139362,0.0153656,0.00453457,0.00124947,0.00114052,0.000684776,-0.0622308,0.000869598,0.000849609,0.015816,-0.0228003,0.00102047,0.0010014,-0.00813965
33,4,0,0,0,0,0,0,231.8,254,0,0,0,0,0,0,0,231.8,766,0,0.00015873,0.000340118,0.000630684,0.0149459,0.00171169,0.00109688,0.000644607,0.000341454,-0.0647103,0.000793304,-0.000332947,0.0124209,-0.0212744,0.00025753,0.000925102,-0.00829224
33,5,0,0,0,0,0,0,231.8,254,0,0,0,0,0,0,0,231.8,766,0,0.00015873,0.00163712,-0.00032299,0.0162048,0.00380978,-0.000352707,0.000682754,0.000646629,-0.0313699,0.0002211,-2.77711e-05,0.0121539,-0.0217703,0.000791588,0.000886955,-0.0101614
33,6,0,0,0,0,0,0,231.8,254,0,0,0,0,0,0,0,231.8,766,0,0.000578347,0.00163712,0.00112659,0.0157852,0.00430569,0.000982437,0.000377579,0.000150719,0.0190223,0.00102219,-0.0002948,0.0157397,-0.0210837,0.000486412,0.000238457,-0.00897888
33,7,0,0,0,0,0,0,231.8,254,0,0,0,0,0,0,0,231.8,766,0,0.000196877,0.000225677,0.00116474,0.017044,0.0022839,0.0014402,0.000301285,0.000684776,0.00715858,0.00121292,0.00111664,0.0191348,-0.0200537,0.00151638,0.00115398,-0.0075293
33,8,0,0,0,0,0,0,231.8,254,0,0,0,0,0,0,0,231.8,766,0,0.000349465,-0.000499115,0.00017292,0.0157089,0.00251278,0.000333939,0.000911636,0.000112572,-0.0556313,-7.78213e-06,-0.000180359,0.0184863,-0.0215033,-9.49856e-06,-0.000791511,-0.00890259
33,9,0,0,0,0,0,0,231.8,254,0,0,0,0,0,0,0,231.8,766,0,-0.000108299,0.00194229,0.00146992,0.0162811,0.00373348,0.00132576,0.000873489,0.000951805,0.0384391,0.000945892,-0.000218506,0.0174563,-0.0218085,6.67954e-05,0.00058178,-0.00646118
34,0,0,0,0,0,0,0,231.8,254,0,0,0,0,0,0,0,231.8,766,0,0.000997963,0.00167526,0.000706978,0.0168533,0.00529751,0.000753555,-0.000423508,0.00114254,0.0143302,0.00117477,0.00180328,0.0182956,-0.0201682,0.00216488,0.000734367,-0.00760559
34,1,0,0,0,0,0,0,231.8,254,0,0,0,0,0,0,0,231.8,766,0,-0.000337181,0.000111236,0.000516243,0.0160141,0.00518307,0.00102058,-0.000118332,7.44248e-05,-0.0467431,0.00170883,8.66698e-05,0.0163501,-0.0219992,-0.000200233,0.000543633,-0.00875
34,2,0,0,0,0,0,0,231.8,254,0,0,0,0,0,0,0,231.8,766,0,-0.000337181,0.000759735,0.00055439,0.0154037,0.00506863,0.00109688,0.000377579,7.44248e-05,0.0533927,3.03648e-05,0.000925903,0.0148242,-0.0216177,0.000829735,0.00058178,-0.00897888
34,3,0,0,0,0,0,0,231.8,254,0,0,0,0,0,0,0,231.8,766,0,0.0005402,0.000912323,0.000287361,0.0168151,0.00388607,0.00094429,0.00129311,0.00144772,0.0287879,0.00121292,-0.000981445,0.0144427,-0.0206641,0.00216488,0.00020031,-0.00916962
34,4,0,0,0,0,0,0,231.8,254,0,0,0,0,0,0,0,231.8,766,0,-0.000146446,0.000301971,0.000363655,0.0161285,0.00476345,0.000410232,0.000339432,0.000379601,-0.0459801,0.00109848,0.00058258,0.0164645,-0.0216177,0.000867882,0.000619926,-0.00875
34,5,0,0,0,0,0,0,231.8,254,0,0,0,0,0,0,0,231.8,766,0,-0.000108299,-0.00103317,0.000363655,0.0161666,0.00499233,-0.000657883,0.00133125,-0.000154457,0.0607551,0.000945892,0.00058258,0.0132602,-0.0211981,-0.000581703,0.00020031,-0.00882629
34,6,0,0,0,0,0,0,231.8,254,0,0,0,0,0,0,0,231.8,766,0,0.000959816,0.00129379,0.00127918,0.0171966,0.00339016,0.00132576,0.000530167,0.00110439,0.0390113,0.000907745,0.00058258,0.0108187,-0.0217703,0.00136379,0.000467339,-0.00669006
34,7,0,0,0,0,0,0,231.8,254,0,0,0,0,0,0,0,231.8,766,0,0.000959816,0.000340118,0.000974007,0.0157852,0.00571712,0.00094429,0.00121681,0.000875511,-0.0566994,-0.00016037,0.000429993,0.0102084,-0.0207404,0.00166897,0.00214581,-0.00863556
34,8,0,0,0,0,0,0,231.8,254,0,0,0,0,0,0,0,231.8,766,0,-0.00022274,-0.000499115,0.00146992,0.0161285,0.00422939,0.00056282,0.00144569,0.000341454,-0.0106561,0.000640716,0.000544433,0.00780514,-0.0214651,0.000410118,0.000162163,-0.00920776
34,9,0,0,0,0,0,0,231.8,254,0,0,0,0,0,0,0,231.8,766,0,0.00103611,0.00133194,0.00120289,0.0155944,0.00640377,0.00151649,0.000759048,0.000150719,0.00551827,0.000488129,0.000162964,0.0100177,-0.0205496,0.000944176,0.00107769,-0.0099707
35,0,0,0,0,0,0,0,231.8,254,0,0,0,0,0,0,0,231.8,766,0,0.000845375,0.00106491,0.000592537,0.0164337,0.0041531,0.00109688,0.000911636,0.000646629,0.0647987,0.000678863,0.00104034,0.0139849,-0.0209311,0.000715294,0.00126843,-0.00833038
35,1,0,0,0,0,0,0,231.8,254,0,0,0,0,0,0,0,231.8,766,0,0.000425759,0.00117935,0.000706978,0.0166244,0.00346645,0.000753555,0.000263138,0.0010281,-0.02519,0.000526275,0.000239258,0.0157397,-0.0210837,0.00151638,0.000543633,-0.00836853
35,2,0,0,0,0,0,0,231.8,254,0,0,0,0,0,0,0,231.8,766,0,-0.00106197,-3.20468e-06,0.000745125,0.0159759,0.00354275,-8.56782e-05,-0.000232773,-4.00161e-05,0.000368424,-0.000389252,0.000658874,0.0145572,-0.0221899,6.67954e-05,0.00149731,-0.0093222
35,3,0,0,0,0,0,0,231.8,254,0,0,0,0,0,0,0,231.8,766,0,0.0005402,0.000797882,-9.41086e-05,0.0164718,0.00548824,0.000867996,0.00159828,0.000455895,0.066172,0.000449982,0.000315552,0.0143664,-0.0211218,0.000600853,-6.6719e-05,-0.00913147
35,4,0,0,0,0,0,0,231.8,254,0,0,0,0,0,0,0,231.8,766,0,0.00107426,0.00095047,0.00131733,0.0165863,0.00754818,0.00105873,0.00163643,-7.81631e-05,-0.0262582,0.00117477,0.00119293,0.0133746,-0.0205496,0.000753441,0.00153545,-0.00836853
35,5,0,0,0,0,0,0,231.8,254,0,0,0,0,0,0,0,231.8,766,0,-0.000642356,0.00110306,0.000745125,0.0162811,0.00613674,0.000867996,0.000682754,0.000227013,0.00582344,0.000297394,-0.000332947,0.0145572,-0.0210455,0.000906029,0.00142101,-0.00947479
35,6,0,0,0,0,0,0,231.8,254,0,0,0,0,0,0,0,231.8,766,0,0.00015873,-7.94986e-05,0.00124104,0.0158615,0.00270351,0.000829849,0.000148697,-7.81631e-05,0.0790656,0.00132736,0.000925903,0.0134509,-0.0209692,0.00117306,-0.000524483,-0.00855927
35,7,0,0,0,0,0,0,231.8,254,0,0,0,0,0,0,0,231.8,766,0,0.000196877,0.00095047,0.000745125,0.0161285,0.00422939,0.00056282,3.42559e-05,-1.86916e-06,-0.0268304,-0.000427399,0.000735168,0.0122683,-0.0220755,0.00025753,0.00153545,-0.00878815
35,8,0,0,0,0,0,0,231.8,254,0,0,0,0,0,0,0,231.8,766,0,0.000769082,-0.00019394,-5.59617e-05,0.0166626,0.000758019,0.00140205,0.00156013,0.000570335,0.00475533,0.00117477,0.000239258,0.0142901,-0.0204733,0.00170712,4.77219e-05,-0.00840668
35,9,0,0,0,0,0,0,231.8,254,0,0,0,0,0,0,0,231.8,766,0,0.000502053,0.000607147,0.000745125,0.0162429,-0.00256077,0.000715408,0.000911636,0.000532188,0.0867332,0.000259247,-0.0002948,0.0150531,-0.0206259,0.000143089,0.00058178,-0.00894073
36,0,0,0,0,0,0,0,231.8,254,0,0,0,0,0,0,0,231.8,766,0,8.2436e-05,3.49423e-05,-0.00032299,0.0158615,-0.00294224,0.000448379,0.000453873,-0.000459633,-0.0269067,0.000793304,1.03759e-05,0.0145953,-0.0220374,0.000867882,0.00107769,-0.00901703
36,1,0,0,0,0,0,0,231.8,254,0,0,0,0,0,0,0,231.8,766,0,0.0005402,3.49423e-05,-1.78147e-05,0.0164337,-0.00134006,0.000677261,0.000720901,-1.86916e-06,-0.0351846,0.00159439,0.00184143,0.0148623,-0.0215033,0.00025753,0.00058178,-0.00798706
36,2,0,0,0,0,0,0,231.8,254,0,0,0,0,0,0,0,231.8,766,0,0.000387612,-0.00068985,0.00093586,0.0160522,0.00213131,0.000791702,0.000835342,0.000150719,-0.00432365,-0.000312958,0.000925903,0.0198596,-0.0216559,0.000410118,0.000352898,-0.00875
36,3,0,0,0,0,0,0,231.8,254,0,0,0,0,0,0,0,231.8,766,0,0.000425759,0.000988617,0.00135548,0.0162811,0.000376549,0.000677261,0.000797195,0.000608482,0.0675071,0.00102219,0.000620727,0.0191729,-0.0210455,0.000906029,0.000429192,-0.00741486
36,4,0,0,0,0,0,0,231.8,254,0,0,0,0,0,0,0,231.8,766,0,0.000463906,0.00110306,0.00143177,0.017044,0.000681725,0.000105057,0.000682754,0.00076107,0.169855,0.000869598,0.00119293,0.0190966,-0.0213889,0.00117306,0.00161175,-0.00829224
36,5,0,0,0,0,0,0,231.8,254,0,0,0,0,0,0,0,231.8,766,0,0.00103611,0.000836029,0.000363655,0.0161666,-0.00160709,0.000410232,0.000530167,0.000112572,0.146014,0.000526275,0.00130737,0.0193255,-0.0212744,-4.76455e-05,0.00138287,-0.00920776
36,6,0,0,0,0,0,0,231.8,254,0,0,0,0,0,0,0,231.8,766,0,8.2436e-05,-0.000537262,0.000249214,0.0166244,-0.00137821,-0.000657883,0.000911636,7.44248e-05,0.11748,-0.000847016,0.000925903,0.0170367,-0.0215796,-0.000162086,-0.000829658,-0.00848297
36,7,0,0,0,0,0,0,231.8,254,0,0,0,0,0,0,0,231.8,766,0,0.000463906,0.000149383,0.00055439,0.0155563,0.000452843,0.00147835,0.000263138,0.000379601,-0.0361382,6.85118e-05,0.000620727,0.0113147,-0.0205878,0.000562706,0.000963249,-0.00886444
36,8,0,0,0,0,0,0,231.8,254,0,0,0,0,0,0,0,231.8,766,0,0.00115055,0.00144638,0.00139362,0.0169296,0.0016354,0.000906143,0.00129311,0.00152401,-0.0976693,0.000984039,0.000887756,0.00933102,-0.02013,0.000448265,0.00107769,-0.00859741
36,9,0,0,0,0,0,0,231.8,254,0,0,0,0,0,0,0,231.8,766,0,0.00126499,0.000378265,0.00055439,0.016777,0.00155911,0.00109688,0.00110237,0.000913658,0.024668,0.000297394,0.000773315,0.0157016,-0.0209692,0.00105862,0.00069622,-0.00844482
37,0,0,0,0,0,0,0,231.8,254,0,0,0,0,0,0,0,231.8,766,0,-0.000413475,0.0011412,0.000592537,0.0162811,0.00232204,0.00105873,0.000873489,0.00076107,-0.00916832,0.000526275,0.00180328,0.0150912,-0.0213507,0.00136379,0.000848808,-0.00829224
37,1,0,0,0,0,0,0,231.8,254,0,0,0,0,0,0,0,231.8,766,0,0.00115055,3.49423e-05,0.000668831,0.0168914,0.000910606,0.000715408,0.000949783,0.000684776,-0.0869118,0.000831451,0.000697021,0.0115817,-0.0201682,0.00140194,0.00020031,-0.00878815
37,2,0,0,0,0,0,0,231.8,254,0,0,0,0,0,0,0,231.8,766,0,0.000235024,0.00018753,0.00116474,0.0148315,-0.000157509,0.000486526,0.000568314,0.000227013,0.0306953,-0.000389252,-0.000332947,0.0115817,-0.0219229,-0.000581703,0.00206951,-0.00821594
37,3,0,0,0,0,0,0,231.8,254,0,0,0,0,0,0,0,231.8,766,0,0.000959816,0.000378265,0.00150806,0.0169296,0.00663265,0.000829849,0.000720901,7.44248e-05,0.00860817,0.000907745,0.00184143,0.0120013,-0.0207785,0.0012112,0.00184063,-0.00936035
37,4,0,0,0,0,0,0,231.8,254,0,0,0,0,0,0,0,231.8,766,0,0.000730935,-0.00019394,0.000287361,0.0165481,0.00873074,0.00109688,0.00213234,0.000379601,-0.0892007,-0.000427399,0.000544433,0.0112002,-0.0219992,0.000906029,0.00119213,-0.00848297
37,5,0,0,0,0,0,0,231.8,254,0,0,0,0,0,0,0,231.8,766,0,0.000845375,0.0012175,0.000974007,0.0160141,0.00613674,0.000600967,0.000568314,0.000341454,-0.0377785,0.000564422,1.03759e-05,0.0112002,-0.0220374,0.000600853,0.00058178,-0.00962738
37,6,0,0,0,0,0,0,231.8,254,0,0,0,0,0,0,0,231.8,766,0,0.000502053,-0.000422821,0.000439949,0.0159759,0.0078915,0.00113502,0.00152199,0.000608482,-0.0179803,-0.000312958,0.00130737,0.0114291,-0.0207404,0.00174526,0.00153545,-0.00955109
37,7,0,0,0,0,0,0,231.8,254,0,0,0,0,0,0,0,231.8,766,0,6.14207e-06,0.000683441,0.0010503,0.0152893,0.0103711,-4.75312e-05,0.000530167,0.000646629,0.0422919,-4.59291e-05,0.000315552,0.0144427,-0.0215033,0.000639,0.00153545,-0.00859741
37,8,0,0,0,0,0,0,231.8,254,0,0,0,0,0,0,0,231.8,766,0,0.0011124,0.00117935,0.000668831,0.0177307,0.010867,0.000639114,0.00159828,0.000913658,-0.0476968,0.000488129,0.00107849,0.0189441,-0.0210074,0.000448265,0.00161175,-0.00897888
37,9,0,0,0,0,0,0,231.8,254,0,0,0,0,0,0,0,231.8,766,0,0.000387612,7.30893e-05,0.000592537,0.0158615,0.00869259,0.000410232,0.00106422,0.000722923,-0.0131738,0.000373688,0.000811462,0.0181811,-0.0211981,0.00144009,0.000925102,-0.00813965
38,0,0,0,0,0,0,0,231.8,254,0,0,0,0,0,0,0,231.8,766,0,4.4289e-05,-0.000613556,0.000439949,0.015747,0.00693783,-8.56782e-05,0.000415726,0.000608482,0.0514472,-0.000427399,0.000315552,0.0148623,-0.0221136,-0.000162086,8.58689e-05,-0.0081778
38,1,0,0,0,0,0,0,231.8,254,0,0,0,0,0,0,0,231.8,766,0,-0.00022274,-0.000270233,0.0010503,0.0160522,0.00815853,0.000791702,0.00060646,0.000494041,-0.0362145,0.000640716,0.000811462,0.0180667,-0.0200537,0.0012112,0.00111584,-0.00821594
38,2,0,0,0,0,0,0,231.8,254,0,0,0,0,0,0,0,231.8,766,0,0.00160831,3.49423e-05,0.000821419,0.0171966,0.00941738,0.00113502,0.00121681,-0.000154457,-0.00333183,0.000984039,0.000849609,0.0178759,-0.0200537,0.000143089,0.000658073,-0.00772003
38,3,0,0,0,0,0,0,231.8,254,0,0,0,0,0,0,0,231.8,766,0,0.0005402,0.000683441,0.000859566,0.0161666,0.0123166,-0.000200119,0.00102608,0.000532188,0.0724281,0.00071701,1.03759e-05,0.0137942,-0.0216559,-4.76455e-05,-0.000295601,-0.00859741
38,4,0,0,0,0,0,0,231.8,254,0,0,0,0,0,0,0,231.8,766,0,0.000463906,-0.000117646,0.000592537,0.015747,0.00777706,-4.75312e-05,7.24029e-05,3.62778e-05,-0.0331628,0.000335541,0.000353699,0.0136416,-0.0208929,0.000600853,4.77219e-05,-0.00840668
38,5,0,0,0,0,0,0,231.8,254,0,0,0,0,0,0,0,231.8,766,0,-0.000604209,0.000454559,0.00135548,0.0161666,0.00442013,0.000715408,0.000186844,-4.00161e-05,-0.000203781,0.00071701,0.000277405,0.0162356,-0.02116,-0.000200233,0.000619926,-0.00779633
38,6,0,0,0,0,0,0,231.8,254,0,0,0,0,0,0,0,231.8,766,0,0.00145573,-0.000117646,0.000783272,0.0148315,0.00651821,0.000715408,0.000720901,0.000379601,0.0817359,-8.40761e-05,0.000429993,0.0161975,-0.0215796,0.000944176,0.000772514,-0.00936035
38,7,0,0,0,0,0,0,231.8,254,0,0,0,0,0,0,0,231.8,766,0,0.000235024,0.000492706,0.0016988,0.0176544,0.00564083,0.00113502,0.00197975,0.000684776,-0.0297295,0.000526275,4.85228e-05,0.0131839,-0.0197104,0.00147823,-0.000638924,-0.00722412
38,8,0,0,0,0,0,0,231.8,254,0,0,0,0,0,0,0,231.8,766,0,0.00115055,0.000111236,0.000134773,0.0161285,0.0022076,0.000372085,0.000415726,0.000684776,-0.0354897,0.000411835,8.66698e-05,0.0144427,-0.0216559,0.000677147,0.00103954,-0.00863556
38,9,0,0,0,0,0,0,231.8,254,0,0,0,0,0,0,0,231.8,766,0,0.00137943,0.000301971,0.000592537,0.0165481,0.0022076,0.00056282,0.000835342,0.000570335,-0.00516289,0.000488129,0.000506287,0.0155871,-0.0210837,0.000791588,-0.000333748,-0.00730042
39,0,0,0,0,0,0,0,231.8,254,0,0,0,0,0,0,0,231.8,766,0,0.000235024,0.000530853,0.000630684,0.0152511,0.00510677,0.000982437,0.00102608,0.000341454,0.0406898,-4.59291e-05,-0.000256653,0.0134509,-0.0207022,0.000410118,0.00168804,-0.00836853
39,1,0,0,0,0,0,0,231.8,254,0,0,0,0,0,0,0,231.8,766,0,0.000196877,-7.94986e-05,-0.00100964,0.0158233,0.00102505,-8.56782e-05,0.000644607,0.000646629,0.0326789,-0.000618134,-0.000485535,0.0132983,-0.0216177,0.000639,0.00126843,-0.0100089
39,2,0,0,0,0,0,0,231.8,254,0,0,0,0,0,0,0,231.8,766,0,0.000921669,0.00106491,0.00108845,0.0158996,0.00129208,0.000753555,0.000911636,0.000951805,-0.0391137,0.000335541,-0.000142212,0.0154727,-0.0210837,0.00109676,0.00153545,-0.00775818
39,3,0,0,0,0,0,0,231.8,254,0,0,0,0,0,0,0,231.8,766,0,0.0011124,0.00095047,0.000668831,0.0165481,0.0016354,0.00147835,-0.000309067,0.00106625,0.053736,-0.000122223,0.000925903,0.0140612,-0.0217703,0.000677147,0.000963249,-0.00768188
39,4,0,0,0,0,0,0,231.8,254,0,0,0,0,0,0,0,231.8,766,0,0.000883522,0.000569,0.00116474,0.0163192,0.000834313,-4.75312e-05,0.000453873,7.44248e-05,0.0263465,0.000488129,0.00096405,0.0137942,-0.0223044,0.000867882,0.000314751,-0.00844482
39,5,0,0,0,0,0,0,231.8,254,0,0,0,0,0,0,0,231.8,766,0,0.000349465,0.000645294,0.000249214,0.0153274,-0.000348244,0.000753555,-0.000728684,0.000379601,-0.0356805,0.000259247,-0.00105774,0.0116198,-0.0219611,-0.000581703,0.000772514,-0.00783447
39,6,0,0,0,0,0,0,231.8,254,0,0,0,0,0,0,0,231.8,766,0,0.0011887,0.00110306,0.000745125,0.01651,0.000948753,0.000410232,0.000415726,0.000303307,0.0628532,0.00174698,0.00149811,0.0139087,-0.0206641,0.00140194,0.000429192,-0.00772003
39,7,0,0,0,0,0,0,231.8,254,0,0,0,0,0,0,0,231.8,766,0,0.00107426,3.49423e-05,0.00108845,0.017044,0.00255093,0.00128761,0.000911636,0.000951805,0.0370658,0.000259247,0.000391846,0.0169223,-0.0215033,0.0012875,0.00134472,-0.00859741
39,8,0,0,0,0,0,0,231.8,254,0,0,0,0,0,0,0,231.8,766,0,0.000997963,0.000492706,5.84793e-05,0.0156707,0.00396236,0.000639114,7.24029e-05,7.44248e-05,-0.0405251,0.000259247,-0.000104065,0.0134127,-0.0206259,0.000791588,0.000352898,-0.00779633
39,9,0,0,0,0,0,0,231.8,254,0,0,0,0,0,0,0,231.8,766,0,-0.000260887,0.000225677,0.00093586,0.0156326,0.000376549,0.000219498,-8.0185e-05,-7.81631e-05,0.0647987,0.000488129,-6.59181e-05,0.0130694,-0.021694,0.000333824,8.58689e-05,-0.00943665
40,0,0,0,0,0,0,0,231.8,254,0,0,0,0,0,0,0,231.8,766,0,0.000349465,0.000759735,0.000668831,0.0165481,0.00289425,0.00109688,0.00102608,0.000379601,0.0437797,0.00117477,-0.000104065,0.0145572,-0.0207404,0.000791588,0.00126843,-0.00749115
40,1,0,0,0,0,0,0,231.8,254,0,0,0,0,0,0,0,231.8,766,0,0.0005402,-0.000232087,0.00017292,0.0169296,0.000414696,0.000715408,0.000530167,0.000379601,-0.0564706,0.000678863,0.00130737,0.014786,-0.0210837,0.00109676,0.000886955,-0.00756744
40,2,0,0,0,0,0,0,231.8,254,0,0,0,0,0,0,0,231.8,766,0,0.000235024,0.00102676,-0.000971489,0.0159378,0.000834313,0.00094429,0.000415726,-1.86916e-06,-0.0104272,-0.000656281,-0.000218506,0.0123065,-0.02116,0.00113491,0.000467339,-0.00852112
40,3,0,0,0,0,0,0,231.8,254,0,0,0,0,0,0,0,231.8,766,0,0.000425759,0.000301971,0.000287361,0.0154419,0.000567284,0.00113502,0.00125496,0.000379601,0.0128806,0.0002211,-0.000485535,0.0132983,-0.0218848,0.00147823,0.000886955,-0.00844482
40,4,0,0,0,0,0,0,231.8,254,0,0,0,0,0,0,0,231.8,766,0,0.000769082,0.000569,0.000134773,0.0160904,0.000872459,-0.00100121,-4.2038e-05,-1.86916e-06,0.135256,0.000984039,-0.000180359,0.0128787,-0.0221136,-0.000352821,8.58689e-05,-0.00737671
40,5,0,0,0,0,0,0,231.8,254,0,0,0,0,0,0,0,231.8,766,0,0.000502053,0.000836029,0.000478096,0.0159378,0.00216946,0.00102058,0.00060646,0.000341454,0.163637,0.00109848,-0.000828858,0.0112384,-0.0218848,0.00170712,0.0022221,-0.0075293
40,6,0,0,0,0,0,0,231.8,254,0,0,0,0,0,0,0,231.8,766,0,0.0011887,0.00125565,0.000363655,0.0166626,0.00186428,0.00147835,0.00110237,0.00125698,0.133807,0.0015181,0.000201111,0.0157779,-0.02013,0.00105862,0.00176434,-0.00710968
40,7,0,0,0,0,0,0,231.8,254,0,0,0,0,0,0,0,231.8,766,0,0.00122685,0.000301971,0.00150806,0.0163192,0.00186428,0.000372085,0.00247566,0.000608482,0.05633,0.000411835,0.00046814,0.0154345,-0.0221899,0.00155453,0.00115398,-0.00676636
40,8,0,0,0,0,0,0,231.8,254,0,0,0,0,0,0,0,231.8,766,0,0.000692788,0.000721588,0.000630684,0.0158233,0.00400051,0.000867996,-0.000766831,-4.00161e-05,-0.0979745,0.000678863,0.000315552,0.0153201,-0.0200537,0.000562706,-0.000829658,-0.00920776
40,9,0,0,0,0,0,0,231.8,254,0,0,0,0,0,0,0,231.8,766,0,0.000769082,0.000530853,-0.000475578,0.0161285,0.00316128,0.000829849,0.000873489,-0.000688515,-0.0396096,-8.40761e-05,-0.000599976,0.0146716,-0.0225714,0.000600853,-0.000867805,-0.00875
41,0,0,0,0,0,0,0,231.8,254,0,0,0,0,0,0,0,231.8,766,0,-0.000108299,-4.13517e-05,-0.000628166,0.01548,0.00274166,0.00105873,-3.89107e-06,0.000608482,0.0406898,0.000564422,8.66698e-05,0.0183337,-0.0214651,0.000639,0.000391045,-0.00878815
41,1,0,0,0,0,0,0,231.8,254,0,0,0,0,0,0,0,231.8,766,0,-0.000451622,0.000492706,-1.78147e-05,0.0164718,0.00312313,0.000486526,0.00102608,0.000112572,-0.0732552,-7.78213e-06,-0.000714417,0.0165408,-0.0201682,0.000486412,0.0010014,-0.00962738
41,2,0,0,0,0,0,0,231.8,254,0,0,0,0,0,0,0,231.8,766,0,0.000349465,-0.000422821,0.000516243,0.0161285,0.00186428,0.000715408,0.000530167,0.000379601,-0.0354897,0.000984039,-0.000790711,0.0144427,-0.0214651,0.000944176,0.000848808,-0.00737671
41,3,0,0,0,0,0,0,231.8,254,0,0,0,0,0,0,0,231.8,766,0,-0.000184593,0.000530853,-0.000551872,0.0151748,0.00339016,0.000639114,-0.00065239,0.000951805,0.0535453,-0.000847016,-0.000447388,0.0137561,-0.0220755,-0.000162086,0.00206951,-0.00951294
41,4,0,0,0,0,0,0,231.8,254,0,0,0,0,0,0,0,231.8,766,0,0.000921669,0.00018753,0.000706978,0.0168533,0.00403866,0.000791702,0.00163643,0.000227013,-0.0622308,0.00128921,0.000658874,0.0115817,-0.0204352,0.00117306,0.000429192,-0.00699524
41,5,0,0,0,0,0,0,231.8,254,0,0,0,0,0,0,0,231.8,766,0,0.000235024,0.000721588,0.00093586,0.0160904,0.00155911,0.000867996,0.000415726,-0.000268898,-0.0655495,0.000411835,-0.000142212,0.0143664,-0.02116,0.000524559,0.00069622,-0.00924591
41,6,0,0,0,0,0,0,231.8,254,0,0,0,0,0,0,0,231.8,766,0,0.0011887,0.000225677,0.000783272,0.0159378,0.00209316,0.00109688,0.000835342,0.00106625,-0.0305306,-4.59291e-05,-0.000371094,0.0159304,-0.0211218,0.000639,0.0010014,-0.00894073
41,7,0,0,0,0,0,0,231.8,254,0,0,0,0,0,0,0,231.8,766,0,0.00015873,0.000263824,0.000821419,0.0152511,0.0040768,0.000333939,0.000759048,0.000722923,0.0185645,0.000411835,-0.000180359,0.0130694,-0.0218085,0.000333824,0.000543633,-0.00764374
41,8,0,0,0,0,0,0,231.8,254,0,0,0,0,0,0,0,231.8,766,0,0.000387612,0.00110306,5.84793e-05,0.0152893,0.00499233,0.000715408,-8.0185e-05,0.000494041,0.00845558,0.000831451,0.000162964,0.0161212,-0.0217703,-0.000123939,0.00107769,-0.0081778
41,9,0,0,0,0,0,0,231.8,254,0,0,0,0,0,0,0,231.8,766,0,0.000845375,0.00144638,0.00093586,0.017044,0.00277981,0.00113502,0.000911636,0.000646629,-0.0572717,0.00147995,0.000544433,0.0152438,-0.0203207,0.0012875,0.000886955,-0.0101233
42,0,0,0,0,0,0,0,231.8,254,0,0,0,0,0,0,0,231.8,766,0,8.2436e-05,0.000454559,2.03323e-05,0.017044,0.0022839,0.00151649,0.00102608,0.000951805,0.0382484,0.00109848,-0.000180359,0.0151675,-0.0215414,0.000944176,0.000963249,-0.00798706
42,1,0,0,0,0,0,0,231.8,254,0,0,0,0,0,0,0,231.8,766,0,0.000769082,0.0012175,0.000745125,0.0163574,0.00117764,0.00121132,0.00011055,0.000379601,0.0130714,0.000945892,0.00058258,0.0196307,-0.0218466,0.00124935,-2.8572e-05,-0.00836853
42,2,0,0,0,0,0,0,231.8,254,0,0,0,0,0,0,0,231.8,766,0,-0.000527916,0.000111236,-0.000399284,0.015747,0.00373348,2.87627e-05,-0.000347214,-0.000307045,-0.0474679,0.00117477,-0.000790711,0.01738,-0.0218848,0.000639,-0.000829658,-0.0081778
42,3,0,0,0,0,0,0,231.8,254,0,0,0,0,0,0,0,231.8,766,0,-0.000337181,3.49423e-05,0.000478096,0.0159759,0.00522121,0.000906143,0.000301285,0.000837364,0.0538123,0.00117477,0.000697021,0.0173419,-0.0209311,0.000448265,0.000352898,-0.00821594
42,4,0,0,0,0,0,0,231.8,254,0,0,0,0,0,0,0,231.8,766,0,0.00015873,0.00117935,0.000287361,0.0169296,0.00380978,0.000639114,0.00114052,0.000417748,0.0291694,0.00109848,0.000353699,0.0142901,-0.0216177,0.000982323,9.57493e-06,-0.0100089
42,5,0,0,0,0,0,0,231.8,254,0,0,0,0,0,0,0,231.8,766,0,0.000349465,0.000263824,0.000287361,0.0162048,0.00766262,0.000867996,0.000224991,0.000150719,-0.0468957,0.000945892,-0.000561829,0.016083,-0.0206641,0.000944176,0.000925102,-0.00768188
42,6,0,0,0,0,0,0,231.8,254,0,0,0,0,0,0,0,231.8,766,0,0.000463906,0.000340118,-0.000246697,0.0146789,0.0100277,0.000829849,-0.000499802,0.000684776,0.0615562,-0.000274811,0.000124817,0.0150149,-0.0224188,-0.000352821,0.000276604,-0.00859741
42,7,0,0,0,0,0,0,231.8,254,0,0,0,0,0,0,0,231.8,766,0,0.000692788,0.000607147,0.000287361,0.016777,0.0118588,0.000486526,0.00114052,0.000608482,0.0401557,0.00159439,0.000239258,0.0150149,-0.0210455,0.00105862,-0.000448189,-0.00802521
42,8,0,0,0,0,0,0,231.8,254,0,0,0,0,0,0,0,231.8,766,0,-3.20049e-05,0.000797882,-1.78147e-05,0.0158233,0.0112484,0.000677261,0.000759048,0.00106625,-0.0579202,3.03648e-05,-0.000104065,0.01738,-0.0201682,0.000677147,0.00130657,-0.00775818
42,9,0,0,0,0,0,0,231.8,254,0,0,0,0,0,0,0,231.8,766,0,0.00103611,0.000874176,-0.000246697,0.0163574,0.00800594,0.000600967,0.000568314,0.000417748,-0.011686,0.000984039,-0.00067627,0.0158923,-0.021694,0.00140194,0.000886955,-0.0081015
43,0,0,0,0,0,0,0,231.8,254,0,0,0,0,0,0,0,231.8,766,0,0.00191349,0.00125565,0.000745125,0.0167389,0.00514492,0.00094429,0.000453873,0.00076107,0.0126899,0.0015181,0.000429993,0.0142901,-0.0216177,0.00178341,0.000276604,-0.00730042
43,1,0,0,0,0,0,0,231.8,254,0,0,0,0,0,0,0,231.8,766,0,0.000196877,3.49423e-05,0.000249214,0.0153656,0.00876888,0.000143204,-0.000461655,0.000913658,0.135256,-0.00103775,0.000315552,0.0142138,-0.0227621,0.000333824,9.57493e-06,-0.00882629
43,2,0,0,0,0,0,0,231.8,254,0,0,0,0,0,0,0,231.8,766,0,0.000654641,0.000836029,0.00139362,0.0157089,0.00949368,0.00109688,0.000453873,0.000455895,0.16318,0.00147995,-0.000256653,0.015816,-0.0213507,0.00105862,0.00145916,-0.0093222
43,3,0,0,0,0,0,0,231.8,254,0,0,0,0,0,0,0,231.8,766,0,4.4289e-05,0.000836029,0.0010503,0.0172348,0.00956997,0.00102058,0.000720901,0.000722923,0.139605,0.00205215,-0.000104065,0.0152056,-0.0208929,0.00147823,0.00130657,-0.00821594
43,4,0,0,0,0,0,0,231.8,254,0,0,0,0,0,0,0,231.8,766,0,0.000578347,-3.20468e-06,-0.00032299,0.0156326,0.00689968,0.000639114,-0.000194626,-0.000230751,0.0600684,0.000335541,0.000124817,0.0145953,-0.0224188,0.000219383,9.57493e-06,-0.00855927
43,5,0,0,0,0,0,0,231.8,254,0,0,0,0,0,0,0,231.8,766,0,-0.000146446,0.000378265,0.00120289,0.0163574,0.00773891,0.000639114,0.00049202,-7.81631e-05,-0.100835,0.00121292,0.00107849,0.0122683,-0.0210455,-0.000200233,-0.000257454,-0.00894073
43,6,0,0,0,0,0,0,231.8,254,0,0,0,0,0,0,0,231.8,766,0,0.00103611,-0.000384674,0.00150806,0.0166626,0.0102185,0.00117317,0.00148384,0.000951805,-0.0333916,0.000526275,0.00058258,0.0135272,-0.0203207,0.00136379,0.0022221,-0.0099707
43,7,0,0,0,0,0,0,231.8,254,0,0,0,0,0,0,0,231.8,766,0,-0.000299034,0.000340118,0.000668831,0.0163955,0.00678524,0.000867996,0.000186844,0.000112572,0.0419105,0.00113663,1.03759e-05,0.014252,-0.0209692,0.000600853,8.58689e-05,-0.00798706
43,8,0,0,0,0,0,0,231.8,254,0,0,0,0,0,0,0,231.8,766,0,4.4289e-05,0.000607147,-0.000170403,0.0158233,0.00678524,0.00109688,0.00098793,-0.000268898,-0.0707757,0.00071701,-0.000409241,0.0123828,-0.0217322,0.000867882,-6.6719e-05,-0.0093985
43,9,0,0,0,0,0,0,231.8,254,0,0,0,0,0,0,0,231.8,766,0,0.000463906,0.000340118,0.000287361,0.0157852,0.0053738,0.000677261,0.000339432,0.000188866,-0.0321328,-0.00126663,8.66698e-05,0.00986507,-0.0216177,0.000562706,0.000467339,-0.00943665
44,0,0,0,0,0,0,0,231.8,254,0,0,0,0,0,0,0,231.8,766,0,0.000502053,0.000492706,0.00131733,0.0162429,0.00373348,0.00147835,0.00190346,0.000532188,0.0559104,0.00182327,0.000697021,0.010628,-0.0208929,0.00166897,0.000925102,-0.00848297
44,1,0,0,0,0,0,0,231.8,254,0,0,0,0,0,0,0,231.8,766,0,-7.01519e-05,0.000263824,0.000401802,0.0167389,0.00422939,0.000791702,0.00098793,-0.000307045,-0.0593697,0.000984039,-0.000828858,0.0110095,-0.0208167,0.0012875,0.00145916,-0.00875
44,2,0,0,0,0,0,0,231.8,254,0,0,0,0,0,0,0,231.8,766,0,0.0011124,0.00129379,0.000821419,0.0155944,0.00251278,0.000410232,0.000263138,0.000532188,-0.0610863,0.000297394,-6.59181e-05,0.0124591,-0.0218466,0.000524559,0.000467339,-0.00844482
44,3,0,0,0,0,0,0,231.8,254,0,0,0,0,0,0,0,231.8,766,0,0.000654641,0.000607147,0.000516243,0.0162048,0.00125393,0.000448379,0.000568314,-0.000459633,-0.02725,0.00106033,0.000697021,0.013489,-0.02116,0.000867882,-6.6719e-05,-0.00936035
44,4,0,0,0,0,0,0,231.8,254,0,0,0,0,0,0,0,231.8,766,0,0.000235024,-0.000422821,0.000363655,0.0160522,0.0022839,0.000448379,0.000720901,0.000913658,0.0226463,0.000449982,0.000391846,0.0152056,-0.0223044,0.000524559,0.000772514,-0.00878815
44,5,0,0,0,0,0,0,231.8,254,0,0,0,0,0,0,0,231.8,766,0,0.000311318,-4.13517e-05,0.00146992,0.0161285,0.000910606,0.000867996,0.000797195,0.000379601,0.00956184,0.00109848,-0.000104065,0.0120013,-0.0207022,0.00136379,0.00115398,-0.0093985
44,6,0,0,0,0,0,0,231.8,254,0,0,0,0,0,0,0,231.8,766,0,0.000120583,0.00125565,0.00162251,0.0172348,0.00113949,0.000372085,0.00110237,0.000570335,-0.0527703,0.00128921,0.00138367,0.0140231,-0.0215033,0.000906029,0.0015736,-0.00863556
44,7,0,0,0,0,0,0,231.8,254,0,0,0,0,0,0,0,231.8,766,0,0.00130314,0.000759735,-1.78147e-05,0.01548,0.00167355,0.000410232,0.000759048,0.00026516,0.0410712,0.00113663,0.00130737,0.0130313,-0.0222662,0.000104942,-6.6719e-05,-0.00970367
44,8,0,0,0,0,0,0,231.8,254,0,0,0,0,0,0,0,231.8,766,0,0.000692788,-0.000270233,0.00112659,0.0158615,0.00335201,6.69097e-05,0.00102608,0.000532188,0.0153983,0.000755157,0.000277405,0.014252,-0.0213889,0.000829735,-0.000143013,-0.0100851
44,9,0,0,0,0,0,0,231.8,254,0,0,0,0,0,0,0,231.8,766,0,0.000730935,0.000721588,0.00135548,0.0159378,0.00483974,0.00132576,0.000568314,0.000722923,-0.0438439,0.00121292,1.03759e-05,0.013489,-0.02116,0.000829735,0.00184063,-0.00852112
45,0,0,0,0,0,0,0,231.8,254,0,0,0,0,0,0,0,231.8,766,0,0.000387612,-0.000155793,0.00127918,0.0162048,0.00281796,0.000372085,0.000568314,-1.86916e-06,0.0553001,0.00228104,0.00161255,0.0148242,-0.0212744,0.000524559,-6.6719e-05,-0.00871185
45,1,0,0,0,0,0,0,231.8,254,0,0,0,0,0,0,0,231.8,766,0,-0.000184593,0.000607147,0.000249214,0.0160141,0.00377163,0.00113502,0.000186844,0.000379601,0.0299323,0.000297394,0.000811462,0.0168078,-0.0218848,0.000524559,0.000276604,-0.00897888
45,2,0,0,0,0,0,0,231.8,254,0,0,0,0,0,0,0,231.8,766,0,-3.20049e-05,0.000759735,0.000974007,0.0166244,0.00571712,0.000486526,0.00098793,-1.86916e-06,-0.0435769,0.00140366,-0.000447388,0.0149005,-0.0213507,0.000600853,0.000543633,-0.00977997
45,3,0,0,0,0,0,0,231.8,254,0,0,0,0,0,0,0,231.8,766,0,0.000425759,0.000301971,0.00135548,0.0157852,0.00659451,0.000829849,0.000759048,0.000989952,0.0614036,0.00201401,0.00058258,0.014252,-0.0205115,0.00140194,0.0010014,-0.00821594
45,4,0,0,0,0,0,0,231.8,254,0,0,0,0,0,0,0,231.8,766,0,0.000120583,0.000340118,0.000745125,0.0157089,0.00403866,0.000867996,0.000720901,-0.000764809,0.0395454,-4.59291e-05,0.000697021,0.0128405,-0.0216559,0.00025753,-2.8572e-05,-0.00943665
45,5,0,0,0,0,0,0,231.8,254,0,0,0,0,0,0,0,231.8,766,0,0.00145573,-0.000117646,0.000745125,0.0165863,0.0022076,0.000829849,0.000873489,0.00148586,-0.0562798,0.000411835,0.00111664,0.0156634,-0.0215796,0.000944176,0.00020031,-0.00897888
45,6,0,0,0,0,0,0,231.8,254,0,0,0,0,0,0,0,231.8,766,0,0.000730935,0.00125565,0.000592537,0.0162811,0.000414696,0.00094429,7.24029e-05,0.000722923,-0.0101983,0.000373688,-0.000218506,0.0189059,-0.0210455,0.000867882,0.000314751,-0.00875
45,7,0,0,0,0,0,0,231.8,254,0,0,0,0,0,0,0,231.8,766,0,0.00145573,0.000378265,0.00143177,0.0164718,0.00136837,0.000600967,0.00167458,0.000379601,0.00738747,0.00117477,0.00111664,0.0201266,-0.0208167,0.00189785,0.00069622,-0.00993256
45,8,0,0,0,0,0,0,231.8,254,0,0,0,0,0,0,0,231.8,766,0,0.00103611,-0.000575409,9.66262e-05,0.0160522,0.00140652,0.000524673,0.00060646,0.000646629,0.063845,-0.00111404,0.00119293,0.0157779,-0.0219229,0.000181236,0.000810661,-0.00894073
45,9,0,0,0,0,0,0,231.8,254,0,0,0,0,0,0,0,231.8,766,0,0.00145573,0.000988617,0.000783272,0.0155563,0.00148281,0.00128761,0.000873489,0.000494041,-0.0248086,0.000488129,-0.000752564,0.0136798,-0.0203207,0.00163082,0.00145916,-0.00859741
46,0,0,0,0,0,0,0,231.8,254,0,0,0,0,0,0,0,231.8,766,0,0.000578347,0.000988617,-1.78147e-05,0.0162048,0.00251278,0.00102058,0.00117867,0.000684776,0.00342018,0.00102219,0.000658874,0.0145572,-0.0218848,0.00174526,0.00107769,-0.00905518
46,1,0,0,0,0,0,0,231.8,254,0,0,0,0,0,0,0,231.8,766,0,0.000273171,-0.000117646,0.000821419,0.015747,0.00365719,0.000753555,0.000186844,0.000379601,0.0653327,0.000602569,0.000658874,0.0152056,-0.021694,-0.000276527,0.000162163,-0.00768188
46,2,0,0,0,0,0,0,231.8,254,0,0,0,0,0,0,0,231.8,766,0,0.000311318,0.000683441,0.00108845,0.01651,0.00556454,0.00094429,0.00152199,0.000646629,-0.0243508,0.00121292,0.00111664,0.0150149,-0.0215414,0.00117306,0.0022221,-0.00920776
46,3,0,0,0,0,0,0,231.8,254,0,0,0,0,0,0,0,231.8,766,0,0.000769082,0.000530853,9.66262e-05,0.0147552,0.00213131,-0.000772324,0.000682754,-0.000192604,0.00696785,-0.00016037,0.00058258,0.0134127,-0.0228766,-0.000581703,-0.000257454,-0.00947479
46,4,0,0,0,0,0,0,231.8,254,0,0,0,0,0,0,0,231.8,766,0,4.4289e-05,0.000797882,0.00150806,0.0163574,0.00258907,0.000906143,0.000568314,0.000608482,0.0813544,0.000297394,0.000697021,0.0163501,-0.0213889,-0.000429115,0.000619926,-0.00875
46,5,0,0,0,0,0,0,231.8,254,0,0,0,0,0,0,0,231.8,766,0,0.00103611,0.000607147,0.000668831,0.0166244,-0.00111118,0.00056282,0.00098793,0.000379601,-0.0246178,0.00106033,0.0010022,0.010895,-0.0215033,0.000982323,-0.000104866,-0.00852112
46,6,0,0,0,0,0,0,231.8,254,0,0,0,0,0,0,0,231.8,766,0,0.0005402,0.000340118,0.000287361,0.0158996,-0.00233189,0.000486526,0.00011055,3.62778e-05,0.00631935,0.00102219,0.0010022,0.0117724,-0.0215796,0.000410118,0.00069622,-0.00855927
46,7,0,0,0,0,0,0,231.8,254,0,0,0,0,0,0,0,231.8,766,0,0.00130314,0.000759735,0.000363655,0.0161285,-0.00175968,0.000486526,0.000759048,3.62778e-05,0.0861228,0.000373688,0.00153625,0.015549,-0.021694,0.00025753,0.000124016,-0.0105811
46,8,0,0,0,0,0,0,231.8,254,0,0,0,0,0,0,0,231.8,766,0,-0.000260887,0.000683441,0.00162251,0.0167389,0.000529137,0.000639114,0.00129311,0.000684776,-0.0282037,0.000411835,-0.000142212,0.0197833,-0.0207404,0.000639,0.00145916,-0.00802521
46,9,0,0,0,0,0,0,231.8,254,0,0,0,0,0,0,0,231.8,766,0,0.00015873,0.000530853,0.000287361,0.0155563,0.00232204,0.000448379,0.00110237,0.000112572,-0.0344598,-0.000351105,0.000391846,0.0178759,-0.0217703,0.000677147,0.000886955,-0.0081015
47,0,0,0,0,0,0,0,231.8,254,0,0,0,0,0,0,0,231.8,766,0,0.00172276,0.000263824,0.000668831,0.0160141,0.00438198,0.00121132,0.000263138,7.44248e-05,-0.00424736,0.000869598,-2.77711e-05,0.016083,-0.0212744,0.000829735,0.000925102,-0.00852112
47,1,0,0,0,0,0,0,231.8,254,0,0,0,0,0,0,0,231.8,766,0,-0.000260887,0.000607147,0.00055439,0.0161285,0.00487789,0.000486526,0.000530167,-1.86916e-06,0.0660194,-0.000503693,0.000735168,0.0136798,-0.0210074,0.000791588,0.000886955,-0.00882629
47,2,0,0,0,0,0,0,231.8,254,0,0,0,0,0,0,0,231.8,766,0,0.00134129,0.00110306,2.03323e-05,0.0163574,0.00468716,0.000753555,0.00098793,0.00106625,0.169703,0.00071701,-0.000180359,0.013222,-0.0210837,0.00132565,0.00103954,-0.00821594
47,3,0,0,0,0,0,0,231.8,254,0,0,0,0,0,0,0,231.8,766,0,0.000463906,0.000301971,0.000783272,0.0160141,0.00236019,0.000715408,0.000568314,0.000150719,0.144373,0.00071701,0.000773315,0.0120395,-0.0219611,0.00124935,0.00168804,-0.00867371
47,4,0,0,0,0,0,0,231.8,254,0,0,0,0,0,0,0,231.8,766,0,0.00218052,0.00110306,0.00146992,0.0168914,0.00136837,0.00170723,0.00148384,0.000608482,0.112101,0.000793304,0.000239258,0.010628,-0.0208167,-0.000352821,0.00164989,-0.00695709
47,5,0,0,0,0,0,0,231.8,254,0,0,0,0,0,0,0,231.8,766,0,0.00015873,0.00106491,0.000706978,0.0152511,0.000796166,0.000715408,0.000453873,-0.000192604,-0.0295388,0.000869598,0.000658874,0.010094,-0.0219229,0.000448265,0.00119213,-0.00947479
47,6,0,0,0,0,0,0,231.8,254,0,0,0,0,0,0,0,231.8,766,0,0.000425759,0.000263824,0.000592537,0.0164337,0.000758019,-0.000123825,0.000148697,0.000379601,-0.0969445,-0.000961456,0.000773315,0.0106662,-0.0220374,0.000791588,0.00126843,-0.00936035
47,7,0,0,0,0,0,0,231.8,254,0,0,0,0,0,0,0,231.8,766,0,0.000616494,0.000988617,0.00135548,0.0170059,-0.000195656,0.000333939,0.00125496,0.000913658,0.0256599,0.000564422,0.000925903,0.0115054,-0.0225714,0.000410118,0.00168804,-0.00760559
47,8,0,0,0,0,0,0,231.8,254,0,0,0,0,0,0,0,231.8,766,0,0.00145573,0.0012175,0.00055439,0.0158233,0.00449642,0.000410232,0.00125496,0.000799217,-0.00668877,0.00125107,0.00111664,0.0140994,-0.0206259,0.00201229,0.00115398,-0.00875
47,9,0,0,0,0,0,0,231.8,254,0,0,0,0,0,0,0,231.8,766,0,0.00130314,0.00171341,0.000897713,0.0158233,0.00445827,0.000295792,0.000720901,0.000417748,-0.0850808,0.000526275,0.000773315,0.0176852,-0.0206259,-0.000200233,0.00115398,-0.00890259
48,0,0,0,0,0,0,0,231.8,254,0,0,0,0,0,0,0,231.8,766,0,0.000692788,0.00133194,0.000859566,0.0157089,0.00503048,0.00121132,0.000301285,0.00106625,0.0315726,0.000793304,-0.000332947,0.0152819,-0.0206259,0.00144009,-0.000219307,-0.0081015
48,1,0,0,0,0,0,0,231.8,254,0,0,0,0,0,0,0,231.8,766,0,0.000883522,0.00018753,0.000478096,0.0168533,0.00743374,0.000829849,0.00121681,0.000646629,0.00818855,0.0014418,0.000239258,0.015549,-0.0208929,0.00109676,0.00142101,-0.0081778
48,2,0,0,0,0,0,0,231.8,254,0,0,0,0,0,0,0,231.8,766,0,-0.000413475,0.000492706,0.000363655,0.0163192,0.00621304,0.000600967,0.000339432,-1.86916e-06,-0.0885522,0.000106659,-0.000371094,0.0171893,-0.021694,0.000333824,-0.00018116,-0.00802521
48,3,0,0,0,0,0,0,231.8,254,0,0,0,0,0,0,0,231.8,766,0,0.00191349,0.000301971,0.00131733,0.0168151,0.0035046,0.000639114,0.000873489,0.00118069,-0.0384652,0.000793304,0.00107849,0.0159304,-0.0221136,0.0018597,0.00123028,-0.00962738
48,4,0,0,0,0,0,0,231.8,254,0,0,0,0,0,0,0,231.8,766,0,0.000349465,0.000340118,0.00055439,0.0166244,0.00136837,0.000982437,0.000415726,0.00076107,-0.017904,0.000449982,0.000697021,0.0135653,-0.0213889,0.000295677,0.00069622,-0.00775818
48,5,0,0,0,0,0,0,231.8,254,0,0,0,0,0,0,0,231.8,766,0,0.000463906,0.000683441,0.000706978,0.0160522,0.00335201,0.000410232,0.000530167,0.000379601,0.0407661,0.00125107,1.03759e-05,0.0160067,-0.0215796,0.000944176,0.00168804,-0.00852112
48,6,0,0,0,0,0,0,231.8,254,0,0,0,0,0,0,0,231.8,766,0,0.00145573,0.000301971,0.000249214,0.01651,0.00331387,0.000219498,0.000301285,-0.000383339,-0.0476586,0.000945892,0.000658874,0.0164264,-0.0218848,0.000906029,-0.00109669,-0.00768188
48,7,0,0,0,0,0,0,231.8,254,0,0,0,0,0,0,0,231.8,766,0,0.000463906,0.00182785,0.00101215,0.0161666,0.00312313,0.00155464,0.000759048,0.00118069,-0.0131738,0.00117477,0.000849609,0.0171511,-0.0197485,0.00170712,0.00123028,-0.00806335
48,8,0,0,0,0,0,0,231.8,254,0,0,0,0,0,0,0,231.8,766,0,0.00137943,0.000416412,5.84793e-05,0.0160141,0.00178799,0.000600967,0.000568314,0.00148586,0.0510658,0.00125107,4.85228e-05,0.0135272,-0.0219229,0.000143089,0.000391045,-0.00829224
48,9,0,0,0,0,0,0,231.8,254,0,0,0,0,0,0,0,231.8,766,0,-0.00022274,0.000836029,0.000325508,0.01548,0.00377163,0.000333939,0.000186844,-0.000307045,-0.0370156,-0.000312958,1.03759e-05,0.0124591,-0.0222662,0.000867882,-0.000104866,-0.0081015
49,0,0,0,0,0,0,0,231.8,254,0,0,0,0,0,0,0,231.8,766,0,0.00149387,0.000874176,-0.00032299,0.0160141,0.0078915,0.000753555,0.00117867,0.000875511,-0.0030648,0.000831451,0.000506287,0.016083,-0.0203589,0.00132565,-2.8572e-05,-0.00791077
49,1,0,0,0,0,0,0,231.8,254,0,0,0,0,0,0,0,231.8,766,0,0.00153202,0.0012175,0.000478096,0.0163955,0.0108288,0.000372085,0.00110237,0.000837364,0.0719321,0.000945892,-0.000981445,0.0140231,-0.0221518,0.000371971,0.000124016,-0.00829224
49,2,0,0,0,0,0,0,231.8,254,0,0,0,0,0,0,0,231.8,766,0,0.000273171,0.000988617,0.00017292,0.0157089,0.00846371,0.000829849,-0.00065239,-7.81631e-05,-0.032705,0.000449982,0.000620727,0.0112765,-0.0211218,0.00117306,0.00107769,-0.00901703
49,3,0,0,0,0,0,0,231.8,254,0,0,0,0,0,0,0,231.8,766,0,0.000502053,0.000454559,0.000668831,0.0159378,0.00945553,0.000829849,-0.000537949,0.000417748,0.000749893,0.000907745,0.00123108,0.00887325,-0.0209311,6.67954e-05,-0.000104866,-0.00909332
49,4,0,0,0,0,0,0,231.8,254,0,0,0,0,0,0,0,231.8,766,0,0.000463906,0.000149383,-0.000628166,0.0152511,0.00880703,0.000829849,0.000263138,-7.81631e-05,0.0823463,-0.000236664,-6.59181e-05,0.0095599,-0.0220374,0.000867882,0.00153545,-0.00977997
49,5,0,0,0,0,0,0,231.8,254,0,0,0,0,0,0,0,231.8,766,0,0.000654641,0.000988617,0.000592537,0.0159759,0.0103329,0.000143204,0.000301285,0.000417748,-0.0293862,0.000755157,1.03759e-05,0.0117724,-0.0202444,0.0012875,0.00138287,-0.00897888
49,6,0,0,0,0,0,0,231.8,254,0,0,0,0,0,0,0,231.8,766,0,0.000883522,-7.94986e-05,0.000859566,0.0168914,0.00865444,0.000906143,0.000453873,0.000494041,-0.0359856,0.00132736,0.000506287,0.0153201,-0.0205878,0.00159267,9.57493e-06,-0.00657562
49,7,0,0,0,0,0,0,231.8,254,0,0,0,0,0,0,0,231.8,766,0,0.000769082,0.0011412,-0.000284843,0.0159759,0.00533566,0.000448379,0.000530167,0.00106625,-0.00539177,-0.000236664,0.000849609,0.0171893,-0.0217703,0.000600853,0.0015736,-0.00791077
49,8,0,0,0,0,0,0,231.8,254,0,0,0,0,0,0,0,231.8,766,0,0.00107426,0.00102676,0.00112659,0.015747,0.00583157,0.00094429,0.000759048,0.000799217,0.0388969,0.000640716,-0.000485535,0.0158923,-0.0203207,0.00124935,0.000886955,-0.00741486
49,9,0,0,0,0,0,0,231.8,254,0,0,0,0,0,0,0,231.8,766,0,0.00015873,0.00117935,0.0010503,0.0163192,0.00617489,0.000753555,0.00152199,0.00026516,0.0310004,0.00159439,0.00058258,0.0158541,-0.0202826,0.00159267,0.000238457,-0.00783447
50,0,0,0,0,0,0,0,231.8,254,0,0,0,0,0,0,0,231.8,766,0,8.2436e-05,0.000340118,-0.000475578,0.0156707,0.00461086,0.000295792,-8.0185e-05,0.000722923,-0.0390374,0.0002211,-0.000218506,0.0139849,-0.0221899,0.00105862,0.00058178,-0.00791077
50,1,0,0,0,0,0,0,231.8,254,0,0,0,0,0,0,0,231.8,766,0,0.000463906,0.000111236,0.000630684,0.0163574,0.00445827,0.000524673,0.000568314,0.000379601,0.0551093,0.000945892,0.000506287,0.0145572,-0.0215796,0.000906029,0.000467339,-0.00772003
50,2,0,0,0,0,0,0,231.8,254,0,0,0,0,0,0,0,231.8,766,0,0.000616494,0.0012175,0.00158436,0.0169677,0.00453457,0.000906143,0.00049202,0.000188866,0.025431,0.000831451,0.000735168,0.0139849,-0.0207785,0.00113491,0.00153545,-0.00878815
50,3,0,0,0,0,0,0,231.8,254,0,0,0,0,0,0,0,231.8,766,0,0.000616494,0.00095047,0.00131733,0.0166244,0.00377163,0.000791702,0.000415726,0.00121883,-0.0359475,0.00140366,0.0016507,0.012192,-0.0205115,0.00117306,0.000810661,-0.00890259
50,4,0,0,0,0,0,0,231.8,254,0,0,0,0,0,0,0,231.8,766,0,-0.00071865,0.000225677,0.000363655,0.0169296,0.00583157,0.00121132,-3.89107e-06,0.000112572,0.0625861,0.00102219,0.000277405,0.0134509,-0.021427,0.000944176,4.77219e-05,-0.0075293
50,5,0,0,0,0,0,0,231.8,254,0,0,0,0,0,0,0,231.8,766,0,-3.20049e-05,0.00144638,0.000401802,0.0155182,0.00533566,0.00102058,-0.000232773,0.000494041,0.0367225,0.000564422,4.85228e-05,0.014519,-0.0216559,0.000333824,0.000467339,-0.00920776
50,6,0,0,0,0,0,0,231.8,254,0,0,0,0,0,0,0,231.8,766,0,0.000425759,0.000530853,0.00146992,0.0170822,0.00201687,0.00094429,0.0013694,0.000341454,-0.0408685,0.00178513,0.000697021,0.0174182,-0.0219992,0.00147823,0.000238457,-0.00787262
50,7,0,0,0,0,0,0,231.8,254,0,0,0,0,0,0,0,231.8,766,0,0.000959816,0.00159897,0.00223286,0.0174636,0.000376549,0.00128761,0.000911636,0.000837364,0.0667442,0.00128921,0.000429993,0.0176852,-0.0197485,0.0012875,0.00123028,-0.00772003
50,8,0,0,0,0,0,0,231.8,254,0,0,0,0,0,0,0,231.8,766,0,0.000387612,0.000530853,0.000211067,0.0161666,-0.000500832,-9.38424e-06,0.000682754,-0.000383339,0.0426734,0.00071701,-0.000104065,0.0152056,-0.0213126,0.000753441,8.58689e-05,-0.0107718
50,9,0,0,0,0,0,0,231.8,254,0,0,0,0,0,0,0,231.8,766,0,0.000578347,0.000759735,0.00108845,0.0152511,-0.000500832,0.00102058,0.000568314,0.000494041,-0.0560891,0.00102219,-6.59181e-05,0.014519,-0.0220374,0.000219383,0.00069622,-0.0075293
51,0,0,0,0,0,0,0,231.8,254,0,0,0,0,0,0,0,231.8,766,0,0.00122685,0.00106491,-1.78147e-05,0.0160141,0.0009869,-0.000123825,0.00102608,0.00076107,-0.0100076,0.00102219,-0.000638123,0.0139087,-0.0213507,-0.000162086,0.000848808,-0.00813965
51,1,0,0,0,0,0,0,231.8,254,0,0,0,0,0,0,0,231.8,766,0,0.000730935,0.000454559,0.00101215,0.0164718,0.00319942,0.000867996,0.00049202,0.000303307,0.0136817,0.00109848,0.000773315,0.0126498,-0.0214651,0.00140194,-0.000143013,-0.00791077
51,2,0,0,0,0,0,0,231.8,254,0,0,0,0,0,0,0,231.8,766,0,0.00126499,0.00095047,0.00135548,0.0168151,0.00449642,0.00132576,0.000797195,0.000646629,0.136401,0.000526275,0.00096405,0.0143664,-0.0215033,0.00105862,0.000734367,-0.0081015
51,3,0,0,0,0,0,0,231.8,254,0,0,0,0,0,0,0,231.8,766,0,0.000845375,0.000836029,0.000478096,0.0156707,0.00613674,0.000867996,0.000911636,0.000303307,0.16276,0.00109848,0.00142181,0.0129931,-0.0214651,0.00117306,0.00126843,-0.00844482
51,4,0,0,0,0,0,0,231.8,254,0,0,0,0,0,0,0,231.8,766,0,0.000273171,-4.13517e-05,0.00055439,0.0158233,0.00636562,0.000600967,-4.2038e-05,0.00106625,0.132891,0.00109848,0.000620727,0.0114291,-0.0210455,-0.000162086,0.00115398,-0.00928406
51,5,0,0,0,0,0,0,231.8,254,0,0,0,0,0,0,0,231.8,766,0,-0.00136715,0.000683441,0.000516243,0.0159378,0.00617489,0.000372085,0.000301285,-0.000841103,0.0545371,-0.000274811,0.000735168,0.0134127,-0.0213889,0.000486412,-0.000638924,-0.00936035
51,6,0,0,0,0,0,0,231.8,254,0,0,0,0,0,0,0,231.8,766,0,0.000616494,0.000683441,-0.000284843,0.0156326,0.0047253,0.000486526,0.00060646,0.000570335,-0.0982034,0.00140366,-0.000371094,0.0139468,-0.0207785,0.00140194,0.000772514,-0.00844482
