Devices
1000
,,North - Force,,,North - Moment,,,North - CoP,,,South - Force,,,South - Moment,,,South - CoP,,,EMG - Voltage,,,,,,,,,,,,,,,,
Frame,Sub Frame,Fx,Fy,Fz,Mx,My,Mz,Cx,Cy,Cz,Fx,Fy,Fz,Mx,My,Mz,Cx,Cy,Cz,1,2,3,TA,5,Sol,7,8,VL,RF,BF,GlutMed,GlutMax,14,MedGast,16
,,N,N,N,N.mm,N.mm,N.mm,mm,mm,mm,N,N,N,N.mm,N.mm,N.mm,mm,mm,mm,V,V,V,V,V,V,V,V,V,V,V,V,V,V,V,V
1,0,0,0,0,0,0,0,231.8,254,0,0,0,0,0,0,0,231.8,766,0,0.000807228,-4.13517e-05,0.000706978,0.0161285,0.00373348,0.000257645,0.000530167,0.000303307,0.0792182,0.000755157,0.00191772,0.0176471,-0.0210837,0.00140194,0.00123028,-0.00958923
1,1,0,0,0,0,0,0,231.8,254,0,0,0,0,0,0,0,231.8,766,0,4.4289e-05,-0.00103317,0.000249214,0.0159759,0.0022839,0.000105057,0.000720901,-0.000535927,0.0200523,-0.00141922,0.000544433,0.0165026,-0.0200919,-4.76455e-05,0.000886955,-0.00821594
1,2,0,0,0,0,0,0,231.8,254,0,0,0,0,0,0,0,231.8,766,0,0.0005402,-0.000270233,-0.00032299,0.01548,-0.00141636,0.000791702,0.00106422,0.000150719,-0.0603234,0.00071701,-0.00136292,0.0128024,-0.0191382,0.00155453,0.00164989,-0.00829224
1,3,0,0,0,0,0,0,231.8,254,0,0,0,0,0,0,0,231.8,766,0,0.000807228,0.00133194,2.03323e-05,0.0166244,0.00125393,0.000867996,0.000644607,0.000989952,-0.0101601,0.000831451,0.000277405,0.0176089,-0.0205496,0.000562706,0.00149731,-0.00859741
1,4,0,0,0,0,0,0,231.8,254,0,0,0,0,0,0,0,231.8,766,0,0.000235024,0.0011412,0.00120289,0.0164718,-0.000806007,0.000677261,0.00102608,0.00026516,0.0135673,0.000793304,0.000124817,0.0221484,-0.0205878,0.00105862,0.000543633,-0.00829224
1,5,0,0,0,0,0,0,231.8,254,0,0,0,0,0,0,0,231.8,766,0,0.000692788,0.000301971,0.00150806,0.0166626,-0.000233803,0.00117317,0.000415726,0.000494041,0.0613273,0.00117477,0.00168884,0.0163501,-0.0199774,0.000829735,0.0022221,-0.00859741
1,6,0,0,0,0,0,0,231.8,254,0,0,0,0,0,0,0,231.8,766,0,0.00134129,0.000607147,9.66262e-05,0.017044,-0.00164524,0.00121132,0.00148384,0.000684776,-0.0440728,0.000373688,0.00126923,0.0200122,-0.0195578,0.00113491,-6.6719e-05,-0.00798706
1,7,0,0,0,0,0,0,231.8,254,0,0,0,0,0,0,0,231.8,766,0,0.000692788,0.0012175,0.00162251,0.0175018,0.000605431,0.00121132,0.00129311,0.00110439,0.0173057,0.000793304,0.000811462,0.0191729,-0.0194434,0.00212673,0.00161175,-0.00844482
1,8,0,0,0,0,0,0,231.8,254,0,0,0,0,0,0,0,231.8,766,0,0.000311318,0.00129379,0.000821419,0.0168533,0.00010952,0.00174538,0.00190346,-4.00161e-05,0.0618995,0.00201401,0.000391846,0.0137179,-0.0206259,0.000867882,0.00176434,-0.00760559
1,9,0,0,0,0,0,0,231.8,254,0,0,0,0,0,0,0,231.8,766,0,0.000578347,0.000988617,0.00108845,0.0169677,7.13731e-05,0.00155464,0.00171272,0.000570335,-0.0406014,0.000984039,0.0010022,0.0148242,-0.0191763,0.00170712,0.00180248,-0.0081015
2,0,0,0,0,0,0,0,231.8,254,0,0,0,0,0,0,0,231.8,766,0,0.00160831,0.00110306,-1.78147e-05,0.0168914,0.000719872,0.000410232,0.00175087,0.00148586,0.0218452,0.000297394,0.000887756,0.00921657,-0.0198248,0.000448265,0.00176434,-0.00836853
2,1,0,0,0,0,0,0,231.8,254,0,0,0,0,0,0,0,231.8,766,0,0.000959816,0.000492706,0.00127918,0.0158615,-0.00107304,0.000791702,0.000720901,0.000150719,0.076319,0.000373688,-0.000638123,0.00849178,-0.0228766,-0.000200233,8.58689e-05,-0.00783447
2,2,0,0,0,0,0,0,231.8,254,0,0,0,0,0,0,0,231.8,766,0,-0.000375328,0.0012175,0.00120289,0.0157089,-0.00271336,0.00132576,0.00125496,0.000608482,-0.0441872,0.00071701,0.000506287,0.00864437,-0.0197485,0.000753441,0.00184063,-0.00798706
2,3,0,0,0,0,0,0,231.8,254,0,0,0,0,0,0,0,231.8,766,0,0.00015873,0.00018753,0.000325508,0.01651,-0.00134006,-0.000238266,0.00060646,-0.000230751,0.0217689,0.000411835,-0.000142212,0.00975063,-0.0217322,0.000829735,0.00130657,-0.00783447
2,4,0,0,0,0,0,0,231.8,254,0,0,0,0,0,0,0,231.8,766,0,0.000463906,0.000683441,0.00112659,0.0157089,0.00361904,0.00102058,0.000720901,0.000417748,0.0837196,0.00132736,0.000811462,0.0128787,-0.0197485,0.000524559,-0.000143013,-0.00768188
2,5,0,0,0,0,0,0,231.8,254,0,0,0,0,0,0,0,231.8,766,0,-0.000527916,7.30893e-05,0.0010503,0.0164718,0.00144466,0.00056282,0.000759048,0.000341454,-0.0479256,0.000373688,-0.000599976,0.0160449,-0.0208929,0.00136379,0.00115398,-0.00962738
2,6,0,0,0,0,0,0,231.8,254,0,0,0,0,0,0,0,231.8,766,0,0.0011124,0.000683441,0.00135548,0.0171585,-0.00156895,0.00102058,0.00121681,0.000951805,-0.0322854,0.000297394,0.00145996,0.0171511,-0.0197485,0.000600853,-0.000295601,-0.00848297
2,7,0,0,0,0,0,0,231.8,254,0,0,0,0,0,0,0,231.8,766,0,-0.000451622,0.000530853,0.000249214,0.01548,0.000147667,0.00159279,0.00060646,-0.000154457,-0.00729912,0.000907745,-0.000561829,0.0173419,-0.0196341,0.000600853,0.00199322,-0.00863556
2,8,0,0,0,0,0,0,231.8,254,0,0,0,0,0,0,0,231.8,766,0,0.000196877,-0.000232087,0.000668831,0.0158615,0.0009869,-0.000238266,0.00060646,0.000684776,0.0536597,0.000793304,-0.000218506,0.0135653,-0.0218848,-8.57925e-05,0.000886955,-0.00840668
2,9,0,0,0,0,0,0,231.8,254,0,0,0,0,0,0,0,231.8,766,0,-0.000146446,0.000759735,-0.00032299,0.0166626,0.00384792,0.00105873,0.00129311,0.000417748,0.00803597,0.00071701,0.00161255,0.0137179,-0.0199011,0.0012875,0.000886955,-0.00844482
3,0,0,0,0,0,0,0,231.8,254,0,0,0,0,0,0,0,231.8,766,0,0.000463906,0.000263824,0.000211067,0.0155182,0.00541195,0.000791702,0.00117867,0.000303307,-0.0371682,0.000793304,-0.000828858,0.00860622,-0.0201682,0.0012875,0.0010014,-0.00882629
3,1,0,0,0,0,0,0,231.8,254,0,0,0,0,0,0,0,231.8,766,0,0.00122685,0.000683441,0.000249214,0.0165863,0.00758633,-9.38424e-06,0.00156013,0.000646629,0.0654853,0.000640716,0.000811462,0.0103228,-0.0195197,-0.000162086,0.00119213,-0.00718597
3,2,0,0,0,0,0,0,231.8,254,0,0,0,0,0,0,0,231.8,766,0,0.000959816,0.000836029,0.00185139,0.0171966,0.00766262,0.00102058,0.000682754,-0.000230751,0.00826485,3.03648e-05,0.00115479,0.014252,-0.0197485,0.00163082,0.00176434,-0.00760559
3,3,0,0,0,0,0,0,231.8,254,0,0,0,0,0,0,0,231.8,766,0,0.0011124,0.000874176,0.00101215,0.0168533,0.00693783,0.000639114,0.00049202,0.000341454,-0.0357949,0.000488129,0.00096405,0.0166171,-0.0207404,0.000448265,0.00069622,-0.00875
3,4,0,0,0,0,0,0,231.8,254,0,0,0,0,0,0,0,231.8,766,0,0.000959816,0.000645294,0.000745125,0.0167007,0.00625118,0.00155464,0.00167458,0.00026516,0.0783027,0.0015181,0.000277405,0.0163882,-0.0201682,0.0012112,0.00115398,-0.00783447
3,5,0,0,0,0,0,0,231.8,254,0,0,0,0,0,0,0,231.8,766,0,0.000692788,0.00018753,0.00055439,0.0155563,0.00606045,0.000219498,0.00098793,0.00076107,0.0138725,-0.000236664,0.000620727,0.00990322,-0.0200537,0.000295677,0.000925102,-0.00920776
3,6,0,0,0,0,0,0,231.8,254,0,0,0,0,0,0,0,231.8,766,0,6.14207e-06,-0.00118576,0.000706978,0.0161666,0.00800594,0.000715408,0.00197975,0.000532188,-0.0405251,0.00125107,0.00130737,0.0117343,-0.0209692,0.00136379,0.00191692,-0.00848297
3,7,0,0,0,0,0,0,231.8,254,0,0,0,0,0,0,0,231.8,766,0,0.000959816,0.00106491,0.00154621,0.016777,0.00842556,0.00140205,0.00140755,-7.81631e-05,0.0816978,0.00125107,0.00142181,0.0132983,-0.0200156,0.000867882,0.00161175,-0.00741486
3,8,0,0,0,0,0,0,231.8,254,0,0,0,0,0,0,0,231.8,766,0,0.000959816,0.00133194,0.00120289,0.0170059,0.00632748,0.000677261,0.000759048,0.000837364,0.0216163,0.00147995,0.000658874,0.0121539,-0.0193289,0.000982323,0.000467339,-0.00871185
3,9,0,0,0,0,0,0,231.8,254,0,0,0,0,0,0,0,231.8,766,0,0.000769082,0.000607147,0.000897713,0.0159378,0.0041531,0.000600967,0.00129311,-0.00011631,-0.0626504,0.00109848,0.0010022,0.0129168,-0.0207404,0.00105862,0.000467339,-0.00905518
4,0,0,0,0,0,0,0,231.8,254,0,0,0,0,0,0,0,231.8,766,0,0.000883522,0.00140823,0.000630684,0.0159378,0.00422939,0.00105873,0.000911636,-0.000307045,-0.0121056,0.000182953,1.03759e-05,0.0148242,-0.0199011,0.000944176,0.000772514,-0.00840668
4,1,0,0,0,0,0,0,231.8,254,0,0,0,0,0,0,0,231.8,766,0,0.000387612,7.30893e-05,0.000478096,0.0168533,0.00327572,0.000600967,0.00114052,-0.000345192,0.0133765,0.0002211,0.00046814,0.0150149,-0.0194434,0.000944176,0.000162163,-0.00863556
4,2,0,0,0,0,0,0,231.8,254,0,0,0,0,0,0,0,231.8,766,0,-7.01519e-05,0.000530853,0.000668831,0.015747,0.00358089,0.00094429,0.000148697,0.000112572,0.0622047,0.000869598,0.000811462,0.0161212,-0.0221518,0.000791588,0.00103954,-0.010047
4,3,0,0,0,0,0,0,231.8,254,0,0,0,0,0,0,0,231.8,766,0,0.00107426,0.000569,0.000745125,0.0162048,0.00216946,0.000753555,0.000759048,3.62778e-05,-0.0468957,0.000335541,0.000887756,0.0144046,-0.0207785,0.00136379,0.000238457,-0.00859741
4,4,0,0,0,0,0,0,231.8,254,0,0,0,0,0,0,0,231.8,766,0,0.000502053,-7.94986e-05,0.00124104,0.0162048,7.13731e-05,0.00056282,0.000720901,0.000455895,0.0186408,0.000335541,0.000124817,0.0123828,-0.0202063,0.000410118,0.00119213,-0.00772003
4,5,0,0,0,0,0,0,231.8,254,0,0,0,0,0,0,0,231.8,766,0,0.000807228,0.000492706,5.84793e-05,0.0159378,0.00319942,0.00102058,0.00060646,0.000417748,0.0601066,-0.000122223,0.00107849,0.0138705,-0.0218085,0.000944176,0.00161175,-0.00710968
4,6,0,0,0,0,0,0,231.8,254,0,0,0,0,0,0,0,231.8,766,0,0.000463906,0.000645294,0.000249214,0.0150604,0.00369534,-8.56782e-05,0.000682754,-1.86916e-06,-0.0454461,-0.000198517,-0.000409241,0.0137179,-0.0207404,0.000677147,8.58689e-05,-0.00924591
4,7,0,0,0,0,0,0,231.8,254,0,0,0,0,0,0,0,231.8,766,0,0.000387612,-0.00019394,0.000478096,0.0148315,0.00129208,0.00056282,0.00110237,-0.000154457,0.021273,0.00109848,0.000544433,0.0108569,-0.0213126,0.000791588,0.000810661,-0.00775818
4,8,0,0,0,0,0,0,231.8,254,0,0,0,0,0,0,0,231.8,766,0,0.000349465,0.0011412,0.000859566,0.0157089,0.000643578,0.000524673,0.00125496,0.000417748,0.0782645,0.000488129,0.000658874,0.0136798,-0.02013,0.00182156,-2.8572e-05,-0.00802521
4,9,0,0,0,0,0,0,231.8,254,0,0,0,0,0,0,0,231.8,766,0,0.000692788,0.000721588,0.00135548,0.0163574,0.0009869,0.00102058,0.000415726,0.00110439,-0.0461709,0.000984039,0.000620727,0.0151294,-0.0205878,0.000677147,-2.8572e-05,-0.0093985
5,0,0,0,0,0,0,0,231.8,254,0,0,0,0,0,0,0,231.8,766,0,0.00137943,0.00095047,0.000783272,0.0168914,0.00430569,0.00113502,0.000720901,0.000646629,0.0213874,0.000984039,0.00191772,0.0150531,-0.0206259,0.00147823,0.00164989,-0.00783447
5,1,0,0,0,0,0,0,231.8,254,0,0,0,0,0,0,0,231.8,766,0,0.00137943,0.000721588,0.00158436,0.0174255,0.00548824,0.0014402,0.00106422,0.000570335,0.0856269,0.00186142,0.000735168,0.0153582,-0.0202063,0.000639,0.000162163,-0.00920776
5,2,0,0,0,0,0,0,231.8,254,0,0,0,0,0,0,0,231.8,766,0,-7.01519e-05,0.000569,0.0016988,0.0163955,0.00617489,0.00117317,0.000339432,0.000532188,-0.0501763,0.000984039,0.000124817,0.0151675,-0.0195197,0.00155453,0.000467339,-0.00798706
5,3,0,0,0,0,0,0,231.8,254,0,0,0,0,0,0,0,231.8,766,0,0.0005402,0.000225677,-0.00020855,0.0160141,0.00632748,0.000867996,0.00106422,0.00129513,-0.0344216,3.03648e-05,0.00058258,0.0157016,-0.0214651,0.000181236,0.00119213,-0.00875
5,4,0,0,0,0,0,0,231.8,254,0,0,0,0,0,0,0,231.8,766,0,0.00103611,0.000454559,0.000287361,0.0164337,0.00846371,0.000982437,0.00152199,0.000608482,-0.00726097,0.000869598,-2.77711e-05,0.0166552,-0.0197104,0.0012875,0.0010014,-0.00878815
5,5,0,0,0,0,0,0,231.8,254,0,0,0,0,0,0,0,231.8,766,0,0.00157017,0.0011412,0.000821419,0.0162811,0.00884518,0.000410232,0.00133125,0.000951805,0.0553764,0.00117477,0.000353699,0.0186007,-0.0204733,0.00147823,0.0015736,-0.00871185
5,6,0,0,0,0,0,0,231.8,254,0,0,0,0,0,0,0,231.8,766,0,0.000387612,0.00018753,0.000630684,0.0167389,0.00709042,0.000410232,0.00129311,0.000112572,0.00849373,0.0002211,0.00187958,0.0153582,-0.0208929,0.00155453,0.00058178,-0.00966553
5,7,0,0,0,0,0,0,231.8,254,0,0,0,0,0,0,0,231.8,766,0,0.000692788,0.000721588,-0.000246697,0.0163574,0.00915035,2.87627e-05,-0.000347214,0.000341454,-0.0393044,0.00125107,-0.000180359,0.0115817,-0.0220755,0.0012112,0.00115398,-0.00787262
5,8,0,0,0,0,0,0,231.8,254,0,0,0,0,0,0,0,231.8,766,0,0.000769082,0.000530853,0.000783272,0.0171203,0.0100659,0.000715408,0.00125496,0.00076107,0.0663245,0.0014418,0.000391846,0.00864437,-0.0212744,-0.000200233,0.00138287,-0.00787262
5,9,0,0,0,0,0,0,231.8,254,0,0,0,0,0,0,0,231.8,766,0,-0.000299034,0.00095047,0.000668831,0.0162048,0.00838741,0.000219498,0.000339432,-4.00161e-05,0.00776894,0.000793304,0.00046814,0.00975063,-0.0207785,0.000906029,-0.00105854,-0.00672821
6,0,0,0,0,0,0,0,231.8,254,0,0,0,0,0,0,0,231.8,766,0,-0.00022274,3.49423e-05,-0.000551872,0.0159378,0.0054501,-0.000619736,0.000148697,0.000188866,-0.0383508,0.000297394,0.000315552,0.00673702,-0.0220755,2.86484e-05,-2.8572e-05,-0.0093985
6,1,0,0,0,0,0,0,231.8,254,0,0,0,0,0,0,0,231.8,766,0,6.14207e-06,-7.94986e-05,-0.000666313,0.0159759,0.00541195,-0.000619736,0.000720901,-0.00011631,0.0779212,-0.000961456,0.000239258,0.0101702,-0.0222281,0.00025753,-0.00018116,-0.00844482
6,2,0,0,0,0,0,0,231.8,254,0,0,0,0,0,0,0,231.8,766,0,0.000921669,0.00163712,0.000821419,0.0158996,0.00575527,0.00056282,0.000453873,0.000494041,0.0146735,0.00113663,0.000315552,0.0135272,-0.0195197,0.00102047,0.00115398,-0.00749115
6,3,0,0,0,0,0,0,231.8,254,0,0,0,0,0,0,0,231.8,766,0,8.2436e-05,0.00125565,0.000974007,0.0173492,0.00331387,0.000753555,0.000568314,0.000303307,-0.0423943,0.00102219,0.000773315,0.0107806,-0.0215796,0.00109676,0.000391045,-0.00928406
6,4,0,0,0,0,0,0,231.8,254,0,0,0,0,0,0,0,231.8,766,0,0.000196877,7.30893e-05,-1.78147e-05,0.0156326,0.00236019,-0.000467148,-0.000461655,-1.86916e-06,0.0820792,0.00132736,-0.000828858,0.0139468,-0.0216177,-0.000963173,0.000352898,-0.00768188
6,5,0,0,0,0,0,0,231.8,254,0,0,0,0,0,0,0,231.8,766,0,0.0005402,0.0012175,0.000592537,0.0153274,0.00300869,-9.38424e-06,0.000759048,0.00171474,0.02051,0.000945892,-0.000142212,0.0137942,-0.0212363,-0.000886879,0.000810661,-0.0075293
6,6,0,0,0,0,0,0,231.8,254,0,0,0,0,0,0,0,231.8,766,0,0.000616494,0.000530853,0.000745125,0.0163192,0.00140652,0.00121132,0.00102608,0.000646629,-0.0660455,0.00128921,0.00104034,0.0150912,-0.0207022,0.00113491,0.00145916,-0.00730042
6,7,0,0,0,0,0,0,231.8,254,0,0,0,0,0,0,0,231.8,766,0,0.00141758,-0.000155793,0.000668831,0.01651,0.00125393,0.00105873,0.000377579,0.000951805,-0.0127541,0.0002211,0.000925903,0.0149768,-0.0206641,0.00117306,0.000848808,-0.00890259
6,8,0,0,0,0,0,0,231.8,254,0,0,0,0,0,0,0,231.8,766,0,0.000120583,0.00144638,0.000211067,0.0157852,0.00117764,0.000867996,-0.000232773,0.000532188,0.012728,0.000755157,0.0016507,0.0130313,-0.0202063,0.00147823,0.00123028,-0.00897888
6,9,0,0,0,0,0,0,231.8,254,0,0,0,0,0,0,0,231.8,766,0,0.00137943,0.00110306,0.00127918,0.0172348,0.0016354,0.00117317,0.00152199,0.00026516,0.0638831,0.00136551,0.000544433,0.0163882,-0.0198248,0.00117306,0.000772514,-0.00779633
7,0,0,0,0,0,0,0,231.8,254,0,0,0,0,0,0,0,231.8,766,0,0.000425759,0.0012175,-9.41086e-05,0.0150222,-0.00294224,0.000524673,0.000148697,0.000989952,-0.0486504,0.00140366,4.85228e-05,0.0139849,-0.021694,-0.00023838,0.000162163,-0.00833038
7,1,0,0,0,0,0,0,231.8,254,0,0,0,0,0,0,0,231.8,766,0,0.000273171,0.000492706,-0.00127666,0.015747,-0.00484959,-0.000505295,0.000224991,0.000608482,0.0155891,0.000945892,0.000201111,0.014786,-0.0207404,0.000791588,0.000467339,-0.00852112
7,2,0,0,0,0,0,0,231.8,254,0,0,0,0,0,0,0,231.8,766,0,0.000463906,0.00095047,0.000325508,0.0159378,-0.00286594,0.000486526,0.000453873,0.000684776,0.062815,0.000602569,4.85228e-05,0.0177615,-0.021694,-0.000886879,8.58689e-05,-0.00760559
7,3,0,0,0,0,0,0,231.8,254,0,0,0,0,0,0,0,231.8,766,0,0.000311318,0.000149383,0.000287361,0.01651,-0.00027195,-9.38424e-06,0.000530167,0.00114254,-0.0450646,0.0014418,0.000315552,0.0159304,-0.0216177,0.000867882,0.000543633,-0.00909332
7,4,0,0,0,0,0,0,231.8,254,0,0,0,0,0,0,0,231.8,766,0,0.000311318,0.000530853,0.00093586,0.0159759,0.00239834,0.00121132,-0.00027092,0.000227013,0.0203574,0.00186142,0.000239258,0.0142901,-0.0208929,0.000867882,0.00069622,-0.00775818
7,5,0,0,0,0,0,0,231.8,254,0,0,0,0,0,0,0,231.8,766,0,6.14207e-06,0.00137009,-0.000857048,0.01548,0.00323757,0.000257645,0.000453873,0.000913658,0.0800574,0.000602569,-0.000638123,0.0174563,-0.0220755,2.86484e-05,0.000314751,-0.00985626
7,6,0,0,0,0,0,0,231.8,254,0,0,0,0,0,0,0,231.8,766,0,0.000769082,-0.000155793,0.000325508,0.0164718,0.00281796,-0.000238266,0.000873489,0.00026516,-0.0491845,0.000602569,0.00161255,0.0213855,-0.0211981,0.00124935,0.00020031,-0.00951294
7,7,0,0,0,0,0,0,231.8,254,0,0,0,0,0,0,0,231.8,766,0,4.4289e-05,0.00137009,0.000401802,0.0163955,0.00125393,0.00105873,0.00121681,0.000608482,0.0214256,0.0015181,0.000201111,0.0192874,-0.0206641,0.000829735,0.0015736,-0.00829224
7,8,0,0,0,0,0,0,231.8,254,0,0,0,0,0,0,0,231.8,766,0,-3.20049e-05,0.00110306,0.000706978,0.0164337,0.0047253,0.00109688,0.00125496,0.0016003,0.0870002,0.000564422,-0.000142212,0.0136416,-0.0204733,0.00166897,0.000848808,-0.00878815
7,9,0,0,0,0,0,0,231.8,254,0,0,0,0,0,0,0,231.8,766,0,0.000578347,0.000645294,0.000401802,0.0164337,0.00266537,0.000600967,0.00121681,0.000722923,-0.0533807,0.000755157,0.00123108,0.00795772,-0.0214651,0.00102047,0.000429192,-0.0081778
8,0,0,0,0,0,0,0,231.8,254,0,0,0,0,0,0,0,231.8,766,0,0.00103611,-0.000270233,0.000211067,0.017044,0.00380978,0.00056282,0.000797195,0.000608482,-0.0352608,0.000488129,0.000277405,0.00811031,-0.0205878,0.00117306,-0.000486336,-0.00840668
8,1,0,0,0,0,0,0,231.8,254,0,0,0,0,0,0,0,231.8,766,0,-7.01519e-05,0.000874176,0.00139362,0.0168151,0.00274166,0.000715408,0.000453873,0.000532188,-0.0103127,0.00163254,0.000658874,0.010094,-0.0196722,0.000982323,0.00149731,-0.00806335
8,2,0,0,0,0,0,0,231.8,254,0,0,0,0,0,0,0,231.8,766,0,-3.20049e-05,0.000607147,-0.000590019,0.0155563,0.00335201,0.000600967,0.000415726,7.44248e-05,0.0556434,0.00071701,-0.000638123,0.0139087,-0.0206641,0.000829735,4.77219e-05,-0.00844482
8,3,0,0,0,0,0,0,231.8,254,0,0,0,0,0,0,0,231.8,766,0,0.00126499,0.000530853,5.84793e-05,0.0161285,-0.00111118,0.000372085,0.000873489,0.000951805,0.00864632,0.000984039,0.000506287,0.0138705,-0.0206641,0.000600853,0.000505486,-0.00958923
8,4,0,0,0,0,0,0,231.8,254,0,0,0,0,0,0,0,231.8,766,0,0.000997963,0.00106491,0.00124104,0.0169296,0.00159725,0.00124947,0.000568314,0.000112572,-0.0410973,0.00109848,0.000544433,0.0166552,-0.0199393,0.00140194,0.000810661,-0.00802521
8,5,0,0,0,0,0,0,231.8,254,0,0,0,0,0,0,0,231.8,766,0,0.000769082,0.0012175,-0.000437431,0.0158233,0.00457272,0.00178352,0.00117867,0.000913658,0.0682319,0.000831451,0.000201111,0.0171511,-0.0206259,0.000791588,0.00256542,-0.00607971
8,6,0,0,0,0,0,0,231.8,254,0,0,0,0,0,0,0,231.8,766,0,0.00115055,0.0011412,0.00108845,0.0163192,0.00442013,0.00117317,0.00133125,0.000646629,0.0076545,0.00102219,0.000658874,0.0180285,-0.0204352,0.00155453,0.00168804,-0.00772003
8,7,0,0,0,0,0,0,231.8,254,0,0,0,0,0,0,0,231.8,766,0,0.000883522,0.00137009,0.000974007,0.015747,0.00522121,0.0014402,0.000759048,0.00171474,-0.0393426,0.00155624,0.000239258,0.0166934,-0.0202826,0.000524559,0.000505486,-0.00756744
8,8,0,0,0,0,0,0,231.8,254,0,0,0,0,0,0,0,231.8,766,0,0.000997963,0.000988617,0.000897713,0.0174255,0.00606045,0.00113502,0.000453873,0.00129513,0.0799812,0.000526275,0.00168884,0.0171511,-0.0200156,0.00163082,0.00195507,-0.00852112
8,9,0,0,0,0,0,0,231.8,254,0,0,0,0,0,0,0,231.8,766,0,0.000387612,0.000301971,0.00093586,0.0162811,0.00579342,0.00113502,0.000644607,0.000875511,0.0150169,6.85118e-05,0.000429993,0.018143,-0.0203589,0.00105862,0.000314751,-0.00897888
9,0,0,0,0,0,0,0,231.8,254,0,0,0,0,0,0,0,231.8,766,0,0.000578347,0.000645294,0.000325508,0.0159759,0.00529751,0.00105873,-0.000156479,0.000379601,-0.0444543,0.000259247,1.03759e-05,0.0148242,-0.0206641,0.000753441,0.00142101,-0.00844482
9,1,0,0,0,0,0,0,231.8,254,0,0,0,0,0,0,0,231.8,766,0,0.000196877,0.000912323,0.000706978,0.0160522,0.00594601,0.000906143,0.00117867,0.000112572,0.0837959,0.00117477,0.000773315,0.0126498,-0.0191382,0.00182156,0.000543633,-0.00779633
9,2,0,0,0,0,0,0,231.8,254,0,0,0,0,0,0,0,231.8,766,0,8.2436e-05,0.00018753,-1.78147e-05,0.0160522,0.00449642,0.000600967,0.000873489,0.000303307,0.0195564,0.000526275,-0.000142212,0.0136798,-0.0209692,-0.000123939,0.00153545,-0.00875
9,3,0,0,0,0,0,0,231.8,254,0,0,0,0,0,0,0,231.8,766,0,0.00130314,0.000149383,-0.000284843,0.0164337,0.00571712,0.00124947,7.24029e-05,0.000570335,-0.067228,0.0002211,0.000239258,0.0158541,-0.0208167,0.000410118,0.00142101,-0.00848297
9,4,0,0,0,0,0,0,231.8,254,0,0,0,0,0,0,0,231.8,766,0,0.00137943,0.00167526,0.000821419,0.0157852,0.00579342,0.00102058,0.000339432,0.000608482,-0.0135552,0.000411835,8.66698e-05,0.0131839,-0.0203589,0.00102047,0.000848808,-0.00806335
9,5,0,0,0,0,0,0,231.8,254,0,0,0,0,0,0,0,231.8,766,0,0.000883522,0.000836029,0.00135548,0.0176544,0.00865444,0.000105057,0.000720901,-0.000154457,0.0118888,0.00071701,8.66698e-05,0.0123828,-0.0205878,0.000295677,0.00168804,-0.00844482
9,6,0,0,0,0,0,0,231.8,254,0,0,0,0,0,0,0,231.8,766,0,-3.20049e-05,0.000797882,2.03323e-05,0.0160141,0.00712856,-0.000352707,-0.00027092,0.000112572,0.0649131,0.00159439,1.03759e-05,0.0156634,-0.0210074,0.000906029,0.000505486,-0.00947479
9,7,0,0,0,0,0,0,231.8,254,0,0,0,0,0,0,0,231.8,766,0,0.000997963,0.00144638,0.00055439,0.0158233,0.0060223,0.00102058,0.000415726,0.000684776,-0.0492226,0.00113663,0.000315552,0.0151294,-0.0197485,0.000906029,0.00130657,-0.00878815
9,8,0,0,0,0,0,0,231.8,254,0,0,0,0,0,0,0,231.8,766,0,0.000578347,0.00117935,0.000668831,0.01651,0.0060223,0.00056282,0.00098793,0.000341454,0.0168098,0.00140366,0.000697021,0.0141375,-0.0202063,0.00124935,0.00153545,-0.00875
9,9,0,0,0,0,0,0,231.8,254,0,0,0,0,0,0,0,231.8,766,0,0.00130314,0.000874176,0.000974007,0.0169296,0.00632748,0.000791702,0.00178902,0.000341454,0.0645316,0.000678863,0.00107849,0.0137942,-0.0195959,0.0012875,0.00058178,-0.00825409
10,0,0,0,0,0,0,0,231.8,254,0,0,0,0,0,0,0,231.8,766,0,0.0005402,0.00133194,0.000211067,0.0174255,0.00541195,0.00124947,0.00121681,0.000608482,-0.0470483,0.000564422,0.000544433,0.0158923,-0.0192908,0.00182156,0.00199322,-0.0075293
10,1,0,0,0,0,0,0,231.8,254,0,0,0,0,0,0,0,231.8,766,0,0.00137943,0.000607147,0.000897713,0.0160522,0.00506863,0.000181351,0.00102608,0.000646629,0.0198997,0.00155624,0.0010022,0.0141375,-0.021694,6.67954e-05,0.000467339,-0.00848297
10,2,0,0,0,0,0,0,231.8,254,0,0,0,0,0,0,0,231.8,766,0,0.000654641,0.00125565,0.00177509,0.0164337,0.00377163,0.00124947,0.00102608,0.000951805,0.0810111,0.00071701,0.000544433,0.0177233,-0.0199011,0.00155453,0.00214581,-0.0068808
10,3,0,0,0,0,0,0,231.8,254,0,0,0,0,0,0,0,231.8,766,0,0.000502053,-0.000117646,0.000401802,0.0166626,0.0035046,0.000181351,-0.000309067,0.000150719,-0.0504815,0.00189957,0.000353699,0.0157397,-0.0206641,0.00144009,-0.000867805,-0.00863556
10,4,0,0,0,0,0,0,231.8,254,0,0,0,0,0,0,0,231.8,766,0,0.000654641,0.00095047,0.000974007,0.0164718,0.00411495,0.00147835,0.00133125,0.00076107,0.0203193,0.00071701,0.000811462,0.0110095,-0.02116,0.000829735,-2.8572e-05,-0.00794891
10,5,0,0,0,0,0,0,231.8,254,0,0,0,0,0,0,0,231.8,766,0,0.000387612,0.000569,0.000668831,0.0158233,0.00331387,0.000333939,-0.000309067,-0.000383339,0.0882209,0.000144806,-0.000371094,0.0122302,-0.0204352,0.000410118,0.000619926,-0.00852112
10,6,0,0,0,0,0,0,231.8,254,0,0,0,0,0,0,0,231.8,766,0,0.00157017,-0.000727997,0.000211067,0.0154037,0.00670895,0.000219498,0.000224991,0.000112572,-0.0549828,0.000640716,0.000925903,0.00868252,-0.0201682,0.00117306,-0.000677071,-0.00848297
10,7,0,0,0,0,0,0,231.8,254,0,0,0,0,0,0,0,231.8,766,0,0.000273171,0.000225677,0.000783272,0.0164718,0.00808224,0.00094429,0.00171272,0.000646629,-0.0361001,0.000526275,-0.000142212,0.0125354,-0.0199393,0.000410118,0.000543633,-0.00749115
10,8,0,0,0,0,0,0,231.8,254,0,0,0,0,0,0,0,231.8,766,0,0.000730935,0.000797882,9.66262e-05,0.0164337,0.00823482,0.000372085,-0.000309067,-0.00087925,-0.00974052,0.000259247,0.000239258,0.0157016,-0.0205496,0.00105862,0.00138287,-0.00821594
10,9,0,0,0,0,0,0,231.8,254,0,0,0,0,0,0,0,231.8,766,0,0.000883522,0.000530853,0.000974007,0.0168914,0.00956997,0.00136391,0.00129311,0.000684776,0.0561393,0.00102219,0.00104034,0.0161593,-0.0195197,0.000677147,0.00111584,-0.00749115
11,0,0,0,0,0,0,0,231.8,254,0,0,0,0,0,0,0,231.8,766,0,0.000235024,0.000988617,0.00108845,0.0163574,0.00808224,0.000677261,0.000835342,-0.000192604,0.0101722,0.00106033,0.000620727,0.0166171,-0.0198248,0.000448265,0.00187878,-0.00897888
11,1,0,0,0,0,0,0,231.8,254,0,0,0,0,0,0,0,231.8,766,0,0.000769082,3.49423e-05,0.000439949,0.0168914,0.00579342,0.000486526,0.000415726,0.00026516,-0.0437295,0.00125107,0.00104034,0.0176471,-0.0194815,0.00166897,0.00119213,-0.00878815
11,2,0,0,0,0,0,0,231.8,254,0,0,0,0,0,0,0,231.8,766,0,0.000463906,0.000797882,0.00101215,0.0168533,0.00590786,0.00117317,0.00171272,0.000570335,0.0697959,0.00113663,0.000697021,0.0188296,-0.0204733,0.00136379,0.000772514,-0.00855927
11,3,0,0,0,0,0,0,231.8,254,0,0,0,0,0,0,0,231.8,766,0,0.000387612,0.000607147,0.00116474,0.01651,0.00834927,0.000791702,0.00117867,-0.000154457,0.00528938,0.000602569,0.000315552,0.0207751,-0.0196722,0.00174526,0.00164989,-0.00844482
11,4,0,0,0,0,0,0,231.8,254,0,0,0,0,0,0,0,231.8,766,0,0.000769082,-7.94986e-05,0.000706978,0.0158615,0.009837,0.00109688,0.000759048,-0.000230751,-0.0402581,0.00071701,0.00180328,0.0210803,-0.0202826,-0.000162086,0.00111584,-0.0081778
11,5,0,0,0,0,0,0,231.8,254,0,0,0,0,0,0,0,231.8,766,0,0.000997963,0.00095047,0.00093586,0.0155563,0.0054501,0.000219498,0.000568314,-0.000612221,0.0808204,0.00117477,8.66698e-05,0.0188678,-0.0209692,0.00105862,0.00103954,-0.00783447
11,6,0,0,0,0,0,0,231.8,254,0,0,0,0,0,0,0,231.8,766,0,0.00157017,0.000607147,0.00154621,0.0172729,0.00422939,0.00159279,0.000453873,0.000227013,0.0145591,0.00140366,0.000697021,0.0185626,-0.0197485,0.00201229,0.00164989,-0.00855927
11,7,0,0,0,0,0,0,231.8,254,0,0,0,0,0,0,0,231.8,766,0,0.000425759,0.000797882,0.00112659,0.0166244,0.0048016,0.000524673,0.00098793,-0.000154457,-0.0447213,0.00113663,0.000811462,0.0160067,-0.0205878,0.000829735,0.000543633,-0.00714783
11,8,0,0,0,0,0,0,231.8,254,0,0,0,0,0,0,0,231.8,766,0,0.000654641,-0.000422821,2.03323e-05,0.0150985,0.00266537,2.87627e-05,0.000148697,0.000455895,0.0842536,0.000106659,0.00058258,0.0123065,-0.0200537,2.86484e-05,0.00153545,-0.0099707
11,9,0,0,0,0,0,0,231.8,254,0,0,0,0,0,0,0,231.8,766,0,-7.01519e-05,0.000111236,0.000439949,0.0162811,0.00178799,0.000372085,0.00060646,-0.000726662,0.0206245,0.00113663,-0.0002948,0.0104373,-0.0211218,6.67954e-05,0.000619926,-0.00730042
12,0,0,0,0,0,0,0,231.8,254,0,0,0,0,0,0,0,231.8,766,0,0.000959816,0.000301971,0.000859566,0.0158996,0.0022839,0.00109688,0.000911636,0.000150719,-0.0697457,-0.000198517,0.000239258,0.013222,-0.02013,0.000410118,0.000925102,-0.0075293
12,1,0,0,0,0,0,0,231.8,254,0,0,0,0,0,0,0,231.8,766,0,0.000845375,0.000378265,0.000363655,0.0167007,0.0029324,-0.000734177,0.00178902,0.00118069,-0.0145852,0.000831451,0.00046814,0.0176471,-0.0202826,0.000448265,0.00123028,-0.00775818
12,2,0,0,0,0,0,0,231.8,254,0,0,0,0,0,0,0,231.8,766,0,0.000425759,0.000301971,0.000439949,0.0153274,0.00205502,2.87627e-05,0.000301285,-0.000421486,0.0104011,0.00125107,-0.000142212,0.0172656,-0.0211981,0.000677147,0.000848808,-0.00802521
12,3,0,0,0,0,0,0,231.8,254,0,0,0,0,0,0,0,231.8,766,0,0.00134129,0.000912323,0.000630684,0.0167389,0.00102505,0.00155464,0.000873489,0.000417748,0.0672782,0.000640716,-0.000447388,0.0156634,-0.0197485,0.0012875,0.000925102,-0.00985626
12,4,0,0,0,0,0,0,231.8,254,0,0,0,0,0,0,0,231.8,766,0,0.000196877,0.000530853,0.000630684,0.0166626,0.000605431,2.87627e-05,0.00106422,0.000188866,-0.0518929,0.000831451,0.00123108,0.0122683,-0.0209692,0.000944176,0.00058178,-0.00794891
12,5,0,0,0,0,0,0,231.8,254,0,0,0,0,0,0,0,231.8,766,0,0.000463906,0.000607147,0.00127918,0.0161285,0.00247463,0.00102058,0.000301285,-0.000802956,0.015055,0.000678863,0.000697021,0.0126498,-0.0197867,0.00102047,0.00103954,-0.0107718
12,6,0,0,0,0,0,0,231.8,254,0,0,0,0,0,0,0,231.8,766,0,-0.000108299,0.000454559,-0.000475578,0.0164718,0.00209316,0.000524673,0.000682754,-0.000154457,0.0649131,-0.000351105,0.000239258,0.015549,-0.0202444,0.00132565,-0.000143013,-0.00825409
12,7,0,0,0,0,0,0,231.8,254,0,0,0,0,0,0,0,231.8,766,0,-0.000108299,-0.000766144,0.000859566,0.0160522,0.00148281,0.000257645,0.000148697,-0.000841103,-0.0488412,0.00125107,0.000277405,0.0183337,-0.0210837,0.00105862,8.58689e-05,-0.00836853
12,8,0,0,0,0,0,0,231.8,254,0,0,0,0,0,0,0,231.8,766,0,0.000273171,0.000530853,-0.000857048,0.0154419,0.00274166,0.000143204,0.000759048,-0.000154457,0.0194419,-0.00134293,0.000162964,0.0182956,-0.0212363,0.00109676,0.000772514,-0.0101233
12,9,0,0,0,0,0,0,231.8,254,0,0,0,0,0,0,0,231.8,766,0,0.000578347,0.000607147,0.000745125,0.01548,0.0035046,2.87627e-05,-0.000309067,-0.000383339,0.0819267,0.00071701,-0.000828858,0.0110476,-0.0218848,0.00025753,9.57493e-06,-0.00741486
13,0,0,0,0,0,0,0,231.8,254,0,0,0,0,0,0,0,231.8,766,0,0.00179905,0.000492706,0.00150806,0.0164337,0.0066708,0.00155464,0.00117867,0.000341454,-0.0520455,0.000564422,0.00104034,0.0114291,-0.0192526,0.0012875,0.00229839,-0.00787262
13,1,0,0,0,0,0,0,231.8,254,0,0,0,0,0,0,0,231.8,766,0,0.000235024,0.000492706,0.000211067,0.0150222,0.00361904,-0.000810471,0.000148697,0.000150719,0.0196326,0.000182953,-2.77711e-05,0.00994137,-0.0217703,0.000677147,0.000658073,-0.0101233
13,2,0,0,0,0,0,0,231.8,254,0,0,0,0,0,0,0,231.8,766,0,0.000425759,0.000416412,0.00093586,0.0152511,0.00327572,0.000486526,-0.000576096,-0.000459633,0.0882209,0.00109848,1.03759e-05,0.0131457,-0.0212744,0.00025753,0.00107769,-0.00871185
13,3,0,0,0,0,0,0,231.8,254,0,0,0,0,0,0,0,231.8,766,0,0.000654641,0.00133194,0.000974007,0.0154037,0.00510677,0.000867996,7.24029e-05,0.000455895,-0.0555932,0.00155624,0.000773315,0.0197833,-0.02013,-0.000162086,0.000314751,-0.00867371
13,4,0,0,0,0,0,0,231.8,254,0,0,0,0,0,0,0,231.8,766,0,0.000311318,0.00018753,0.000401802,0.0169296,0.00411495,0.000829849,0.000339432,0.000570335,-0.0382363,0.000259247,0.000658874,0.0177615,-0.0216177,0.000639,8.58689e-05,-0.0093985
13,5,0,0,0,0,0,0,231.8,254,0,0,0,0,0,0,0,231.8,766,0,0.000311318,0.000416412,0.000630684,0.0158615,0.00720486,0.000677261,0.00060646,-0.000802956,-0.0106179,3.03648e-05,-6.59181e-05,0.0146716,-0.0210074,0.000677147,0.00187878,-0.00871185
13,6,0,0,0,0,0,0,231.8,254,0,0,0,0,0,0,0,231.8,766,0,0.000502053,0.000111236,-9.41086e-05,0.0161285,0.00655636,0.000677261,0.00106422,0.000188866,0.0565971,0.0014418,0.000201111,0.0142901,-0.0208167,0.000753441,0.000162163,-0.00863556
13,7,0,0,0,0,0,0,231.8,254,0,0,0,0,0,0,0,231.8,766,0,0.000502053,0.000301971,0.000859566,0.0167007,0.00445827,0.000410232,0.000568314,0.000227013,0.00940926,0.00128921,0.00058258,0.0210803,-0.0202826,0.00140194,0.00111584,-0.00829224
13,8,0,0,0,0,0,0,231.8,254,0,0,0,0,0,0,0,231.8,766,0,0.00145573,0.000836029,0.000363655,0.0161285,0.00247463,0.000906143,0.00159828,7.44248e-05,-0.044912,0.000984039,0.000544433,0.0204318,-0.021427,0.000944176,0.00210766,-0.00878815
13,9,0,0,0,0,0,0,231.8,254,0,0,0,0,0,0,0,231.8,766,0,0.000387612,0.000378265,0.00108845,0.0166626,0.00144466,0.00102058,0.00110237,0.000722923,0.0707114,0.000831451,-0.000485535,0.015816,-0.0192908,0.000906029,0.000543633,-0.00787262
14,0,0,0,0,0,0,0,231.8,254,0,0,0,0,0,0,0,231.8,766,0,0.000349465,0.000301971,0.00139362,0.0160141,-0.00126377,0.000867996,7.24029e-05,-0.000192604,0.00639565,0.000869598,0.000887756,0.0152438,-0.0202826,0.00105862,0.00058178,-0.0081778
14,1,0,0,0,0,0,0,231.8,254,0,0,0,0,0,0,0,231.8,766,0,0.000578347,-7.94986e-05,0.00017292,0.0162811,-0.00229374,0.000333939,0.00098793,0.00026516,-0.043615,-8.40761e-05,0.000315552,0.0130313,-0.0210837,0.000143089,-0.000371895,-0.0101233
14,2,0,0,0,0,0,0,231.8,254,0,0,0,0,0,0,0,231.8,766,0,-0.000909385,-0.000651703,0.00116474,0.0160141,0.000605431,0.000791702,0.000453873,-7.81631e-05,0.0810111,0.00159439,1.03759e-05,0.011925,-0.0194815,0.00102047,-0.000295601,-0.00844482
14,3,0,0,0,0,0,0,231.8,254,0,0,0,0,0,0,0,231.8,766,0,0.000730935,0.000340118,0.000745125,0.0159378,0.00346645,0.000753555,0.000301285,0.000532188,0.0135291,0.000640716,0.00104034,0.0113528,-0.0216177,0.00105862,0.00145916,-0.00821594
14,4,0,0,0,0,0,0,231.8,254,0,0,0,0,0,0,0,231.8,766,0,0.00122685,0.000301971,-0.000284843,0.0162048,0.00529751,0.000791702,0.00152199,0.000837364,-0.0468194,0.000411835,0.00096405,0.0120776,-0.0210837,0.000600853,8.58689e-05,-0.00905518
14,5,0,0,0,0,0,0,231.8,254,0,0,0,0,0,0,0,231.8,766,0,-0.000184593,-0.000117646,0.000783272,0.0153274,0.00255093,0.000219498,-0.000194626,0.000227013,0.0858939,0.000373688,1.03759e-05,0.0111621,-0.0206641,-0.000276527,0.00134472,-0.00707153
14,6,0,0,0,0,0,0,231.8,254,0,0,0,0,0,0,0,231.8,766,0,0.00126499,0.00144638,0.00116474,0.016777,0.00430569,0.000829849,0.000644607,0.000951805,0.0204719,0.00174698,0.00111664,0.0117343,-0.0197867,0.00147823,0.000467339,-0.00852112
14,7,0,0,0,0,0,0,231.8,254,0,0,0,0,0,0,0,231.8,766,0,0.00137943,0.000912323,0.0016988,0.0168151,0.00377163,0.00056282,0.000377579,0.00114254,-0.0707757,0.000869598,0.000124817,0.00887325,-0.0213507,0.00170712,0.000162163,-0.00768188
14,8,0,0,0,0,0,0,231.8,254,0,0,0,0,0,0,0,231.8,766,0,0.000883522,0.000263824,0.00120289,0.0167389,0.00483974,0.00094429,0.000835342,0.000684776,-0.0154244,0.00132736,0.000277405,0.0107425,-0.0206259,0.00136379,0.00187878,-0.00905518
14,9,0,0,0,0,0,0,231.8,254,0,0,0,0,0,0,0,231.8,766,0,0.000997963,0.00110306,0.000592537,0.0166244,0.00548824,0.00147835,0.000224991,-0.000307045,0.0115455,0.000907745,0.000735168,0.0131839,-0.0211218,0.00113491,0.000619926,-0.00848297
15,0,0,0,0,0,0,0,231.8,254,0,0,0,0,0,0,0,231.8,766,0,0.000235024,0.00018753,0.000439949,0.0158996,0.00243649,0.000181351,0.000568314,0.000455895,0.0679649,0.000106659,0.000162964,0.0140994,-0.0208929,0.000753441,0.00149731,-0.00871185
15,1,0,0,0,0,0,0,231.8,254,0,0,0,0,0,0,0,231.8,766,0,0.000425759,0.000149383,-0.00032299,0.01548,0.00247463,0.000333939,0.000453873,0.00026516,-0.0535332,0.000411835,0.00115479,0.0107425,-0.02116,0.00109676,0.00058178,-0.00897888
15,2,0,0,0,0,0,0,231.8,254,0,0,0,0,0,0,0,231.8,766,0,0.000578347,0.000111236,-0.000246697,0.0155182,0.00358089,0.00056282,0.000224991,0.000989952,0.0160087,0.00125107,0.00130737,0.015816,-0.0212363,0.000944176,-6.6719e-05,-0.00768188
15,3,0,0,0,0,0,0,231.8,254,0,0,0,0,0,0,0,231.8,766,0,0.000578347,0.000263824,0.00112659,0.0159378,0.00384792,0.000448379,0.000415726,0.00121883,0.0668586,0.000297394,0.000239258,0.0156253,-0.0207022,0.000600853,0.000619926,-0.007453
15,4,0,0,0,0,0,0,231.8,254,0,0,0,0,0,0,0,231.8,766,0,0.000311318,-0.000384674,0.000706978,0.0155944,0.00243649,0.000639114,0.0013694,-7.81631e-05,-0.0509393,0.000793304,0.000773315,0.0110095,-0.0214651,0.000982323,0.00058178,-0.007453
15,5,0,0,0,0,0,0,231.8,254,0,0,0,0,0,0,0,231.8,766,0,0.000463906,0.000301971,0.000897713,0.0158233,0.00373348,0.000219498,-0.000614243,-0.000383339,0.0198997,-4.59291e-05,8.66698e-05,0.0164264,-0.0212363,0.00025753,0.000619926,-0.00947479
15,6,0,0,0,0,0,0,231.8,254,0,0,0,0,0,0,0,231.8,766,0,0.000730935,0.000530853,-5.59617e-05,0.0157089,0.00632748,0.000639114,0.000377579,-1.86916e-06,0.0826514,0.000488129,0.000887756,0.0180285,-0.0206259,0.00174526,0.00107769,-0.00813965
15,7,0,0,0,0,0,0,231.8,254,0,0,0,0,0,0,0,231.8,766,0,0.000769082,7.30893e-05,0.000478096,0.0160522,0.00621304,0.000715408,0.000568314,0.000112572,-0.0531899,0.000945892,0.000162964,0.0176471,-0.0205878,0.000982323,0.000543633,-0.00775818
15,8,0,0,0,0,0,0,231.8,254,0,0,0,0,0,0,0,231.8,766,0,0.000959816,-0.00019394,0.000325508,0.0156707,0.00377163,0.00056282,0.000682754,0.000799217,0.0196326,0.00128921,0.00123108,0.0155108,-0.0204352,0.0012112,0.00172619,-0.00882629
15,9,0,0,0,0,0,0,231.8,254,0,0,0,0,0,0,0,231.8,766,0,0.000387612,-0.000117646,0.000478096,0.0168151,0.00617489,0.000791702,0.00129311,0.000379601,0.0901664,0.00113663,0.000124817,0.0166934,-0.0226096,0.00136379,0.000925102,-0.00863556
16,0,0,0,0,0,0,0,231.8,254,0,0,0,0,0,0,0,231.8,766,0,0.000311318,0.00137009,0.000478096,0.0160141,0.00674709,0.000982437,0.000720901,0.00137142,-0.0563561,0.000373688,0.000811462,0.0150912,-0.0209311,0.000410118,0.00153545,-0.00749115
16,1,0,0,0,0,0,0,231.8,254,0,0,0,0,0,0,0,231.8,766,0,-0.000527916,-0.000155793,0.000516243,0.01651,0.0060223,0.000257645,0.00102608,0.000150719,-0.0393044,0.000449982,0.000353699,0.0123065,-0.02116,0.000562706,-0.000600777,-0.0093985
16,2,0,0,0,0,0,0,231.8,254,0,0,0,0,0,0,0,231.8,766,0,0.000616494,-0.00030838,0.000783272,0.0161666,0.0073193,0.000829849,0.000682754,-0.000192604,-0.0105035,0.00102219,0.000506287,0.0150912,-0.02013,0.000410118,0.000124016,-0.00871185
16,3,0,0,0,0,0,0,231.8,254,0,0,0,0,0,0,0,231.8,766,0,0.000692788,0.00102676,-0.000361137,0.0159759,0.00964626,0.000410232,0.00129311,0.00156216,0.0599158,-0.00016037,4.85228e-05,0.0151294,-0.0208929,-4.76455e-05,0.000772514,-0.00913147
16,4,0,0,0,0,0,0,231.8,254,0,0,0,0,0,0,0,231.8,766,0,-0.000260887,0.0011412,0.000859566,0.0169296,0.0107907,0.000677261,0.000911636,0.00129513,0.00857002,0.00147995,0.000697021,0.0144809,-0.0196341,0.0012112,0.00103954,-0.0081015
16,5,0,0,0,0,0,0,231.8,254,0,0,0,0,0,0,0,231.8,766,0,0.000387612,0.000836029,-0.000170403,0.015747,0.00995144,0.00109688,0.000911636,0.000684776,-0.0472771,0.00102219,-0.00132477,0.0128405,-0.0207785,0.00102047,0.000848808,-0.00871185
16,6,0,0,0,0,0,0,231.8,254,0,0,0,0,0,0,0,231.8,766,0,0.00145573,0.000683441,0.000439949,0.0165863,0.0115536,0.000372085,0.00182716,0.00144772,0.070597,0.000144806,0.000239258,0.0107806,-0.0210074,0.000791588,0.00103954,-0.0081778
16,7,0,0,0,0,0,0,231.8,254,0,0,0,0,0,0,0,231.8,766,0,0.000196877,0.000530853,0.000783272,0.0166244,0.00876888,0.00056282,0.000148697,0.000837364,0.00551827,0.00140366,0.00123108,0.0109332,-0.0197867,0.000524559,0.00119213,-0.007453
16,8,0,0,0,0,0,0,231.8,254,0,0,0,0,0,0,0,231.8,766,0,0.000235024,0.000263824,0.000745125,0.017044,0.00689968,0.00121132,0.00148384,-0.000154457,-0.0438821,0.00113663,0.00138367,0.010895,-0.0200537,0.0012875,-0.000982246,-0.00825409
16,9,0,0,0,0,0,0,231.8,254,0,0,0,0,0,0,0,231.8,766,0,0.0011887,0.000225677,0.00139362,0.0170822,0.00579342,0.00102058,0.00114052,0.00121883,0.0825751,0.000755157,0.000925903,0.0138324,-0.0205496,0.00140194,0.00161175,-0.00836853
17,0,0,0,0,0,0,0,231.8,254,0,0,0,0,0,0,0,231.8,766,0,0.00107426,0.000836029,0.000325508,0.0161666,0.00583157,0.000829849,0.000873489,0.000532188,0.0144828,0.000907745,0.000735168,0.0151675,-0.0213507,0.000600853,0.00252728,-0.00875
17,1,0,0,0,0,0,0,231.8,254,0,0,0,0,0,0,0,231.8,766,0,0.00130314,0.000225677,0.000668831,0.0155944,0.00583157,0.000410232,0.00148384,0.0010281,-0.0492226,0.000602569,4.85228e-05,0.0122302,-0.020397,0.000867882,0.000810661,-0.00909332
17,2,0,0,0,0,0,0,231.8,254,0,0,0,0,0,0,0,231.8,766,0,0.000730935,0.00133194,0.00127918,0.0170059,0.00510677,0.00147835,0.00148384,0.000379601,0.0864661,0.00174698,0.0010022,0.0131076,-0.0199011,0.00163082,0.00195507,-0.00695709
17,3,0,0,0,0,0,0,231.8,254,0,0,0,0,0,0,0,231.8,766,0,-0.000108299,0.000797882,0.00143177,0.0167389,0.00804409,0.00132576,0.00117867,0.000722923,0.0194419,0.000488129,0.00184143,0.0169223,-0.020397,0.000982323,0.000619926,-0.00859741
17,4,0,0,0,0,0,0,231.8,254,0,0,0,0,0,0,0,231.8,766,0,0.00134129,0.000607147,0.000630684,0.0172348,0.00751003,0.000486526,0.000759048,0.0010281,-0.0738274,0.00125107,0.000315552,0.0176089,-0.0199011,0.000906029,0.00119213,-0.00985626
17,5,0,0,0,0,0,0,231.8,254,0,0,0,0,0,0,0,231.8,766,0,0.000196877,0.000530853,0.000134773,0.015747,0.00514492,0.000715408,0.000224991,0.00026516,-0.0160348,0.000602569,0.00058258,0.0210803,-0.0207785,0.000181236,0.00153545,-0.00852112
17,6,0,0,0,0,0,0,231.8,254,0,0,0,0,0,0,0,231.8,766,0,0.000730935,0.000454559,0.000821419,0.0167007,0.00388607,0.000753555,0.000873489,0.00125698,0.0122321,0.000678863,0.000735168,0.0209658,-0.0213889,0.00151638,0.00184063,-0.00901703
17,7,0,0,0,0,0,0,231.8,254,0,0,0,0,0,0,0,231.8,766,0,0.00130314,0.000301971,0.000401802,0.0163955,0.00194057,0.000524673,0.000644607,-7.81631e-05,0.0711692,0.000831451,0.000544433,0.0153201,-0.0208548,0.000486412,0.000848808,-0.00848297
17,8,0,0,0,0,0,0,231.8,254,0,0,0,0,0,0,0,231.8,766,0,0.000921669,-0.000537262,9.66262e-05,0.01548,0.000223961,0.00056282,0.00152199,0.000341454,-0.0544106,0.000106659,0.00145996,0.0129931,-0.0210455,0.000867882,0.00252728,-0.0075293
17,9,0,0,0,0,0,0,231.8,254,0,0,0,0,0,0,0,231.8,766,0,0.000921669,0.000874176,0.000859566,0.0159378,-0.00271336,0.000906143,0.000453873,0.000227013,0.016085,0.000602569,0.00142181,0.0153201,-0.02013,0.00163082,0.00184063,-0.00871185
18,0,0,0,0,0,0,0,231.8,254,0,0,0,0,0,0,0,231.8,766,0,0.000273171,0.00018753,0.000363655,0.0158233,-0.00195042,0.00113502,7.24029e-05,0.000303307,0.0676597,0.0002211,-0.00101959,0.0162356,-0.0207022,0.000295677,4.77219e-05,-0.00707153
18,1,0,0,0,0,0,0,231.8,254,0,0,0,0,0,0,0,231.8,766,0,0.00122685,-0.000499115,0.000401802,0.0163574,-0.00408665,0.000410232,0.000911636,0.000379601,-0.0536477,0.000182953,0.0015744,0.0148623,-0.0206641,0.00140194,0.00130657,-0.00855927
18,2,0,0,0,0,0,0,231.8,254,0,0,0,0,0,0,0,231.8,766,0,0.000921669,0.00018753,0.000134773,0.0161285,-0.00439182,0.000867996,0.00163643,0.000913658,0.0208915,-7.78213e-06,4.85228e-05,0.014519,-0.0209311,0.00109676,0.00138287,-0.0081015
18,3,0,0,0,0,0,0,231.8,254,0,0,0,0,0,0,0,231.8,766,0,0.000502053,3.49423e-05,-0.000475578,0.0146408,-0.00202671,0.000524673,0.000263138,0.000188866,0.0837959,0.000144806,-0.000905151,0.0164645,-0.0220755,0.000104942,0.00195507,-0.0081015
18,4,0,0,0,0,0,0,231.8,254,0,0,0,0,0,0,0,231.8,766,0,0.000578347,0.000569,0.000325508,0.0152893,-0.000462685,-0.000390854,0.000911636,0.000379601,-0.0546395,0.000831451,-0.000104065,0.00914028,-0.019863,-0.000314674,0.00058178,-0.00985626
18,5,0,0,0,0,0,0,231.8,254,0,0,0,0,0,0,0,231.8,766,0,0.000502053,-0.000651703,0.000706978,0.0163192,-0.00114933,0.000219498,0.000568314,0.000341454,0.0177634,0.00071701,0.00134552,0.0136416,-0.0208167,0.0012112,0.0010014,-0.00829224
18,6,0,0,0,0,0,0,231.8,254,0,0,0,0,0,0,0,231.8,766,0,0.000997963,0.000988617,0.000478096,0.0153656,0.00155911,0.000333939,0.00011055,0.000494041,0.0893653,0.0002211,0.000544433,0.0191729,-0.0213126,0.000181236,0.00168804,-0.00882629
18,7,0,0,0,0,0,0,231.8,254,0,0,0,0,0,0,0,231.8,766,0,0.000311318,0.000836029,0.00124104,0.0165863,0.00155911,0.000867996,0.00060646,0.000227013,-0.0579202,0.00125107,0.000162964,0.0148623,-0.0199011,-0.000276527,0.0010014,-0.00775818
18,8,0,0,0,0,0,0,231.8,254,0,0,0,0,0,0,0,231.8,766,0,0.00115055,0.000263824,0.000325508,0.0163192,0.0040768,0.000524673,-0.000194626,0.000913658,-0.041021,0.000411835,0.00134552,0.0136798,-0.0208929,0.0012875,0.00168804,-0.00886444
18,9,0,0,0,0,0,0,231.8,254,0,0,0,0,0,0,0,231.8,766,0,0.000578347,0.000836029,9.66262e-05,0.0162048,0.00224575,0.00121132,0.000911636,0.000837364,-0.0112664,0.000297394,0.000162964,0.0117724,-0.0210074,0.000829735,0.000391045,-0.00924591
19,0,0,0,0,0,0,0,231.8,254,0,0,0,0,0,0,0,231.8,766,0,0.0011124,0.000759735,-1.78147e-05,0.0162811,0.00216946,0.00105873,0.000453873,0.00125698,0.0619376,0.000755157,0.000391846,0.0108569,-0.0200919,0.0012112,0.00168804,-0.00802521
19,1,0,0,0,0,0,0,231.8,254,0,0,0,0,0,0,0,231.8,766,0,-0.000108299,0.000988617,0.000325508,0.0156707,0.00140652,0.00094429,0.000911636,-0.000268898,0.00929482,0.00163254,0.0015744,0.00872066,-0.0202063,0.000753441,0.00107769,-0.00798706
19,2,0,0,0,0,0,0,231.8,254,0,0,0,0,0,0,0,231.8,766,0,-3.20049e-05,-0.000460968,0.000134773,0.0155944,0.00113949,6.69097e-05,0.00102608,7.44248e-05,-0.0478875,0.000106659,-0.000638123,0.00837734,-0.0203589,0.000906029,-0.000143013,-0.0081015
19,3,0,0,0,0,0,0,231.8,254,0,0,0,0,0,0,0,231.8,766,0,0.000502053,0.000225677,-0.00032299,0.0154419,0.00277981,-8.56782e-05,-0.000347214,-1.86916e-06,0.0717796,-0.000274811,8.66698e-05,0.013222,-0.0204352,-0.000314674,0.0022221,-0.00890259
19,4,0,0,0,0,0,0,231.8,254,0,0,0,0,0,0,0,231.8,766,0,-0.000413475,0.000454559,5.84793e-05,0.0152511,0.00312313,-8.56782e-05,0.000720901,-0.000230751,0.00425941,-0.000198517,0.00111664,0.00883511,-0.0209692,0.000333824,0.000619926,-0.00928406
19,5,0,0,0,0,0,0,231.8,254,0,0,0,0,0,0,0,231.8,766,0,8.2436e-05,0.000225677,0.000401802,0.0147171,0.00400051,0.000105057,0.000682754,-0.000612221,-0.0446069,0.000793304,-0.00067627,0.00795772,-0.0217703,-4.76455e-05,0.000314751,-0.0075293
19,6,0,0,0,0,0,0,231.8,254,0,0,0,0,0,0,0,231.8,766,0,0.0011124,-4.13517e-05,-0.000399284,0.015213,0.00716671,-8.56782e-05,0.000568314,0.000303307,0.0837959,0.000335541,0.00123108,0.0110858,-0.0213507,0.000562706,0.00184063,-0.00802521
19,7,0,0,0,0,0,0,231.8,254,0,0,0,0,0,0,0,231.8,766,0,0.00141758,0.000759735,0.000668831,0.0163574,0.00434383,0.000295792,0.00102608,0.000570335,0.013491,0.000831451,8.66698e-05,0.0109332,-0.0209692,0.000448265,0.00149731,-0.00726227
19,8,0,0,0,0,0,0,231.8,254,0,0,0,0,0,0,0,231.8,766,0,0.000616494,0.000492706,0.00154621,0.0164718,0.00384792,0.00102058,0.00110237,-1.86916e-06,-0.0499856,0.0014418,0.00046814,0.0108187,-0.0206641,0.000333824,0.00130657,-0.007453
19,9,0,0,0,0,0,0,231.8,254,0,0,0,0,0,0,0,231.8,766,0,0.000654641,-0.000575409,0.00101215,0.0162811,0.00434383,0.000410232,0.000797195,-0.000535927,0.0866569,0.00106033,0.000544433,0.0154727,-0.0214651,0.000600853,-0.000257454,-0.00867371
20,0,0,0,0,0,0,0,231.8,254,0,0,0,0,0,0,0,231.8,766,0,0.000387612,0.000874176,0.000363655,0.0154037,0.00312313,0.000753555,3.42559e-05,0.000150719,0.0210822,-0.000122223,-0.000409241,0.0146716,-0.0200156,0.000829735,0.00115398,-0.0101614
20,1,0,0,0,0,0,0,231.8,254,0,0,0,0,0,0,0,231.8,766,0,0.000235024,0.000378265,0.000706978,0.01651,0.00518307,0.00113502,-8.0185e-05,0.000837364,-0.0735986,-0.000122223,0.000353699,0.0095599,-0.0202063,0.000982323,0.000886955,-0.00993256
20,2,0,0,0,0,0,0,231.8,254,0,0,0,0,0,0,0,231.8,766,0,0.000959816,0.000797882,0.000974007,0.0163192,0.00483974,0.00132576,0.00125496,0.000188866,-0.0161874,0.00163254,-6.59181e-05,0.00837734,-0.0199774,0.000982323,0.000391045,-0.00821594
20,3,0,0,0,0,0,0,231.8,254,0,0,0,0,0,0,0,231.8,766,0,4.4289e-05,0.000912323,0.00116474,0.0152893,0.00438198,0.00124947,-0.000118332,0.000570335,0.013224,0.000106659,0.000620727,0.0100558,-0.0204733,0.00025753,0.00172619,-0.00844482
20,4,0,0,0,0,0,0,231.8,254,0,0,0,0,0,0,0,231.8,766,0,0.000425759,-0.000155793,0.00055439,0.0153274,0.0053738,-0.000352707,0.000759048,-4.00161e-05,0.0709403,0.00109848,0.000162964,0.0105899,-0.0222662,0.000639,-0.000143013,-0.0075293
20,5,0,0,0,0,0,0,231.8,254,0,0,0,0,0,0,0,231.8,766,0,0.0005402,-0.000727997,2.03323e-05,0.0147171,0.00449642,0.000791702,3.42559e-05,0.000341454,-0.0554787,0.000335541,0.000239258,0.0143283,-0.0205878,0.000181236,0.000925102,-0.00806335
20,6,0,0,0,0,0,0,231.8,254,0,0,0,0,0,0,0,231.8,766,0,-0.000184593,-4.13517e-05,0.00101215,0.0158233,0.00239834,-4.75312e-05,0.000568314,0.000150719,0.0159324,0.0002211,0.000429993,0.0139087,-0.0193289,0.000600853,-0.000257454,-0.00913147
20,7,0,0,0,0,0,0,231.8,254,0,0,0,0,0,0,0,231.8,766,0,0.000502053,-0.000384674,0.000401802,0.015213,0.00426754,0.00117317,0.000759048,0.000227013,0.0679267,0.000793304,0.000315552,0.0158923,-0.0203589,0.00117306,-0.000219307,-0.007453
20,8,0,0,0,0,0,0,231.8,254,0,0,0,0,0,0,0,231.8,766,0,0.000692788,0.000645294,9.66262e-05,0.0153656,0.00174984,0.000257645,-8.0185e-05,0.000570335,-0.0521981,0.000411835,0.000315552,0.0202411,-0.0205496,0.000181236,-0.000791511,-0.00901703
20,9,0,0,0,0,0,0,231.8,254,0,0,0,0,0,0,0,231.8,766,0,0.000349465,-0.000575409,0.000630684,0.0163574,0.00136837,0.000410232,0.000568314,7.44248e-05,0.0195945,0.000449982,-0.000142212,0.0217288,-0.0207785,0.00136379,-0.000524483,-0.00920776
21,0,0,0,0,0,0,0,231.8,254,0,0,0,0,0,0,0,231.8,766,0,0.00153202,-0.00030838,0.000439949,0.0158615,0.00373348,0.000829849,0.000797195,0.00026516,0.085131,0.00125107,0.000887756,0.0201266,-0.0195197,0.00109676,0.00145916,-0.00768188
21,1,0,0,0,0,0,0,231.8,254,0,0,0,0,0,0,0,231.8,766,0,0.00122685,0.000874176,0.000478096,0.0159378,0.0035046,0.000486526,0.000911636,0.000875511,-0.0541817,0.000907745,0.00130737,0.0188296,-0.0216177,0.00174526,0.00138287,-0.00890259
21,2,0,0,0,0,0,0,231.8,254,0,0,0,0,0,0,0,231.8,766,0,0.000921669,0.0012175,0.000897713,0.0157089,0.00277981,0.000753555,3.42559e-05,-1.86916e-06,0.0201667,0.00136551,0.000429993,0.022835,-0.02013,0.000829735,0.000124016,-0.00600342
21,3,0,0,0,0,0,0,231.8,254,0,0,0,0,0,0,0,231.8,766,0,0.0011887,0.0012175,0.00127918,0.0170059,0.0048016,0.00132576,0.000949783,0.000646629,0.0910056,0.00197586,0.00046814,0.0240939,-0.0206641,0.00105862,-0.000143013,-0.00840668
21,4,0,0,0,0,0,0,231.8,254,0,0,0,0,0,0,0,231.8,766,0,0.000921669,0.000340118,0.00162251,0.0163574,0.00304684,0.000600967,0.000759048,0.000227013,-0.0584542,0.00159439,0.000239258,0.0187915,-0.0195578,0.000944176,0.000467339,-0.00813965
21,5,0,0,0,0,0,0,231.8,254,0,0,0,0,0,0,0,231.8,766,0,0.000883522,-0.000804291,0.000478096,0.0165481,0.0073193,0.000791702,0.000797195,0.000112572,-0.0401818,0.000144806,-0.000332947,0.0127642,-0.0207404,0.000791588,0.0010014,-0.00798706
21,6,0,0,0,0,0,0,231.8,254,0,0,0,0,0,0,0,231.8,766,0,-3.20049e-05,0.000454559,0.000897713,0.0162429,0.010104,0.000867996,0.000873489,0.000379601,-0.0135552,0.000106659,0.00046814,0.0121157,-0.0200919,0.000715294,0.0010014,-0.00859741
21,7,0,0,0,0,0,0,231.8,254,0,0,0,0,0,0,0,231.8,766,0,0.000845375,0.000988617,0.000211067,0.0170822,0.0097607,0.000867996,0.00049202,0.000799217,0.0592673,0.00147995,-0.000905151,0.0148623,-0.0206259,0.000600853,0.000734367,-0.00863556
21,8,0,0,0,0,0,0,231.8,254,0,0,0,0,0,0,0,231.8,766,0,0.000387612,0.00102676,0.000783272,0.0159378,0.0120877,0.000181351,0.000453873,0.000722923,0.0123084,0.00102219,0.00115479,0.0174945,-0.0217322,0.000600853,0.0010014,-0.00836853
21,9,0,0,0,0,0,0,231.8,254,0,0,0,0,0,0,0,231.8,766,0,0.000845375,0.0011412,0.00112659,0.0169677,0.0112866,0.000867996,0.00167458,0.000684776,-0.0507485,0.00155624,0.000544433,0.0114672,-0.0192145,0.000944176,0.00145916,-0.00836853
22,0,0,0,0,0,0,0,231.8,254,0,0,0,0,0,0,0,231.8,766,0,0.00145573,0.000912323,0.000821419,0.0162048,0.0104855,0.00113502,0.000911636,0.000188866,0.0726188,0.00121292,-0.000599976,0.0110476,-0.0204733,0.000562706,-0.000448189,-0.00714783
22,1,0,0,0,0,0,0,231.8,254,0,0,0,0,0,0,0,231.8,766,0,0.000807228,0.000378265,0.000287361,0.0161285,0.00854,-4.75312e-05,0.00114052,0.000379601,0.00464088,0.00109848,0.00107849,0.0132983,-0.0208929,0.000867882,0.00107769,-0.00981812
22,2,0,0,0,0,0,0,231.8,254,0,0,0,0,0,0,0,231.8,766,0,0.000807228,0.000301971,0.0010503,0.0162811,0.00655636,0.00102058,0.00114052,0.000112572,-0.0460183,0.00121292,0.00096405,0.0132602,-0.0203207,0.00163082,0.000352898,-0.00695709
22,3,0,0,0,0,0,0,231.8,254,0,0,0,0,0,0,0,231.8,766,0,-3.20049e-05,3.49423e-05,0.000783272,0.015747,0.00945553,0.00102058,-0.00027092,0.00121883,0.0844444,0.00113663,-0.000371094,0.0152438,-0.0217322,6.67954e-05,0.00058178,-0.0081015
22,4,0,0,0,0,0,0,231.8,254,0,0,0,0,0,0,0,231.8,766,0,0.000235024,0.00018753,0.000287361,0.015747,0.00876888,0.000829849,0.000339432,0.000684776,0.0137199,0.00174698,-0.000104065,0.0153582,-0.0209692,0.00124935,-0.000333748,-0.00852112
22,5,0,0,0,0,0,0,231.8,254,0,0,0,0,0,0,0,231.8,766,0,4.4289e-05,0.000645294,0.000325508,0.0165481,0.00956997,-9.38424e-06,0.00152199,0.000417748,-0.0492608,0.00186142,8.66698e-05,0.0203936,-0.0216177,0.000753441,0.000848808,-0.00836853
22,6,0,0,0,0,0,0,231.8,254,0,0,0,0,0,0,0,231.8,766,0,0.000235024,7.30893e-05,0.000859566,0.0165863,0.00895962,0.000867996,0.000873489,0.000646629,0.0858176,0.00128921,0.000620727,0.0197833,-0.0218085,0.000486412,0.0010014,-0.00890259
22,7,0,0,0,0,0,0,231.8,254,0,0,0,0,0,0,0,231.8,766,0,0.000997963,0.000378265,0.00135548,0.0160904,0.00644192,0.000829849,0.00117867,0.000608482,0.0203193,0.00109848,0.000658874,0.0154345,-0.0203207,0.000677147,0.000391045,-0.00844482
22,8,0,0,0,0,0,0,231.8,254,0,0,0,0,0,0,0,231.8,766,0,0.000845375,0.000111236,0.00112659,0.016777,0.00716671,0.00102058,0.00167458,0.000989952,-0.0759255,0.00113663,4.85228e-05,0.0130694,-0.020397,0.0012112,0.00191692,-0.0081015
22,9,0,0,0,0,0,0,231.8,254,0,0,0,0,0,0,0,231.8,766,0,0.000997963,7.30893e-05,0.000592537,0.0163574,0.00487789,0.000867996,0.000530167,0.000303307,-0.0169503,0.0015181,0.000887756,0.0132983,-0.0207785,0.000600853,-0.000638924,-0.00836853
23,0,0,0,0,0,0,0,231.8,254,0,0,0,0,0,0,0,231.8,766,0,-0.000108299,0.00117935,0.00101215,0.0155944,0.00483974,0.000791702,0.00049202,0.000799217,0.0251258,0.00113663,1.03759e-05,0.0171893,-0.0211218,0.000829735,0.000162163,-0.00897888
23,1,0,0,0,0,0,0,231.8,254,0,0,0,0,0,0,0,231.8,766,0,-3.20049e-05,0.000683441,0.000706978,0.0155944,0.00483974,0.000486526,-0.000156479,0.000608482,0.183016,-7.78213e-06,0.000315552,0.0161212,-0.021427,0.000677147,0.00153545,-0.00897888
23,2,0,0,0,0,0,0,231.8,254,0,0,0,0,0,0,0,231.8,766,0,0.000997963,0.000492706,0.00055439,0.0166244,0.00609859,0.000486526,0.00098793,0.000379601,0.184084,0.0014418,0.000887756,0.0154727,-0.0209692,0.000982323,-0.000600777,-0.00852112
23,3,0,0,0,0,0,0,231.8,254,0,0,0,0,0,0,0,231.8,766,0,0.000502053,0.000797882,0.000897713,0.0162429,0.00682339,0.00102058,0.000224991,0.000608482,0.147044,0.000945892,0.000658874,0.0120013,-0.0202063,0.00155453,0.000963249,-0.00722412
23,4,0,0,0,0,0,0,231.8,254,0,0,0,0,0,0,0,231.8,766,0,0.000692788,0.000378265,-5.59617e-05,0.0156707,0.00567898,0.00102058,-0.000194626,0.00106625,0.0311912,0.000793304,0.000124817,0.0107425,-0.0207404,0.000333824,8.58689e-05,-0.00844482
23,5,0,0,0,0,0,0,231.8,254,0,0,0,0,0,0,0,231.8,766,0,0.000730935,-4.13517e-05,0.000287361,0.0156326,0.00133022,0.000257645,0.00121681,0.000570335,-0.136656,0.000831451,-6.59181e-05,0.0111239,-0.0199774,0.000562706,0.000314751,-0.00894073
23,6,0,0,0,0,0,0,231.8,254,0,0,0,0,0,0,0,231.8,766,0,6.14207e-06,0.000149383,0.000325508,0.0166244,0.00361904,0.000791702,0.000530167,0.000837364,-0.0307595,0.000869598,0.000925903,0.011925,-0.0210837,0.00117306,0.000467339,-0.00962738
23,7,0,0,0,0,0,0,231.8,254,0,0,0,0,0,0,0,231.8,766,0,0.000349465,0.000912323,0.000478096,0.0160522,0.00388607,0.00117317,0.000224991,0.000188866,0.0366843,0.00140366,0.000239258,0.0164645,-0.0206641,0.000448265,0.000543633,-0.00867371
23,8,0,0,0,0,0,0,231.8,254,0,0,0,0,0,0,0,231.8,766,0,0.000807228,0.00201858,0.00093586,0.0165481,0.00354275,0.00113502,0.000720901,0.00140957,-0.107244,0.00147995,0.000277405,0.0310748,-0.0196722,0.0012875,0.00168804,-0.00813965
23,9,0,0,0,0,0,0,231.8,254,0,0,0,0,0,0,0,231.8,766,0,0.000578347,-0.000270233,0.000325508,0.0160904,0.00483974,-0.000619736,0.000568314,0.000494041,-0.0238549,0.00178513,0.000353699,0.0276797,-0.0233344,0.000944176,-0.000524483,-0.00829224
24,0,0,0,0,0,0,0,231.8,254,0,0,0,0,0,0,0,231.8,766,0,0.000463906,0.000492706,0.000363655,0.0154037,0.00323757,-0.000200119,3.42559e-05,-0.000345192,0.0543845,0.00071701,-0.00143921,0.0130313,-0.0202826,-0.000696144,0.000467339,-0.00894073
24,1,0,0,0,0,0,0,231.8,254,0,0,0,0,0,0,0,231.8,766,0,6.14207e-06,0.000416412,-0.000170403,0.0162429,0.00186428,0.000410232,0.000873489,0.000608482,-0.0958764,0.000297394,0.000429993,0.0164645,-0.0206641,0.00174526,0.000619926,-0.00913147
24,2,0,0,0,0,0,0,231.8,254,0,0,0,0,0,0,0,231.8,766,0,0.000654641,-4.13517e-05,0.000745125,0.0165863,0.000643578,0.0014402,0.0013694,0.000570335,-0.0718819,0.000984039,0.000506287,0.0126117,-0.0203589,-4.76455e-05,0.0010014,-0.00890259
24,3,0,0,0,0,0,0,231.8,254,0,0,0,0,0,0,0,231.8,766,0,0.000845375,0.000607147,0.000821419,0.0162811,0.00110134,0.000372085,0.000453873,0.000913658,-0.0370156,0.000449982,8.66698e-05,0.0127642,-0.0208548,0.00113491,0.000963249,-0.00928406
24,4,0,0,0,0,0,0,231.8,254,0,0,0,0,0,0,0,231.8,766,0,0.000578347,3.49423e-05,0.000897713,0.017044,0.000529137,0.000982437,0.000224991,0.000112572,0.0384391,0.00147995,0.00119293,0.0102847,-0.0212744,0.00132565,0.000848808,-0.00813965
24,5,0,0,0,0,0,0,231.8,254,0,0,0,0,0,0,0,231.8,766,0,0.000654641,0.0011412,0.00139362,0.0161666,0.00152096,0.00132576,0.00117867,0.000608482,-0.0109994,0.000869598,0.000811462,0.00742367,-0.0206641,0.00113491,0.00130657,-0.00710968
24,6,0,0,0,0,0,0,231.8,254,0,0,0,0,0,0,0,231.8,766,0,0.00153202,-0.000117646,0.00127918,0.0163955,0.0054501,0.000486526,0.000911636,0.00179104,-0.060476,0.000526275,0.00218475,0.00658443,-0.0204733,0.00201229,0.00130657,-0.00829224
24,7,0,0,0,0,0,0,231.8,254,0,0,0,0,0,0,0,231.8,766,0,0.00107426,0.00110306,0.00143177,0.0168533,0.00255093,0.00105873,0.000949783,0.000532188,0.0613654,0.00193771,0.000201111,0.0120776,-0.0200537,0.000677147,0.000467339,-0.00684265
24,8,0,0,0,0,0,0,231.8,254,0,0,0,0,0,0,0,231.8,766,0,0.00149387,0.000530853,0.00158436,0.0165481,0.00354275,0.00109688,0.00152199,0.00156216,-0.00699394,0.000793304,0.00115479,0.014252,-0.0202826,0.00235561,0.00020031,-0.00794891
24,9,0,0,0,0,0,0,231.8,254,0,0,0,0,0,0,0,231.8,766,0,0.0011124,0.000607147,0.00108845,0.016777,0.00201687,0.000143204,0.00159828,0.00118069,-0.0506341,0.00182327,0.000773315,0.0119632,-0.0215414,0.00159267,0.000886955,-0.00905518
25,0,0,0,0,0,0,0,231.8,254,0,0,0,0,0,0,0,231.8,766,0,0.000845375,0.000836029,0.000897713,0.0162429,0.0009869,0.00109688,0.00098793,0.00076107,0.0797523,0.000640716,0.000658874,0.016083,-0.0195197,0.00144009,0.000619926,-0.00710968
25,1,0,0,0,0,0,0,231.8,254,0,0,0,0,0,0,0,231.8,766,0,0.00115055,0.000569,9.66262e-05,0.0162048,0.00117764,0.000295792,0.00140755,0.00121883,0.0110496,0.00136551,0.000162964,0.0120395,-0.02116,0.00117306,0.000848808,-0.00867371
25,2,0,0,0,0,0,0,231.8,254,0,0,0,0,0,0,0,231.8,766,0,0.0005402,0.000340118,0.00093586,0.0162048,0.000948753,0.000181351,0.00110237,0.000150719,-0.0486504,0.00132736,0.000773315,0.00940731,-0.0212363,0.000333824,0.00237469,-0.00714783
25,3,0,0,0,0,0,0,231.8,254,0,0,0,0,0,0,0,231.8,766,0,-0.00022274,-0.00107132,2.03323e-05,0.0157852,0.00289425,0.000105057,0.000835342,7.44248e-05,0.0867332,0.000106659,-0.000523682,0.00940731,-0.0206641,0.000295677,0.000124016,-0.00791077
25,4,0,0,0,0,0,0,231.8,254,0,0,0,0,0,0,0,231.8,766,0,0.000387612,-0.00030838,-0.000170403,0.017044,-0.000806007,0.000181351,0.000148697,0.000684776,0.0211204,0.000640716,4.85228e-05,0.0143283,-0.0207404,0.000333824,0.000352898,-0.0093985
25,5,0,0,0,0,0,0,231.8,254,0,0,0,0,0,0,0,231.8,766,0,-0.000337181,-0.00019394,0.000668831,0.0160522,0.000719872,0.000295792,0.000453873,0.000188866,-0.0691735,0.000526275,0.000124817,0.0168841,-0.0203589,0.000143089,0.000352898,-0.010047
25,6,0,0,0,0,0,0,231.8,254,0,0,0,0,0,0,0,231.8,766,0,0.000463906,0.000645294,0.000859566,0.01651,0.00388607,0.00056282,0.00125496,0.000837364,-0.0120675,0.000564422,0.0015744,0.0176471,-0.0192908,0.00163082,0.000314751,-0.00951294
25,7,0,0,0,0,0,0,231.8,254,0,0,0,0,0,0,0,231.8,766,0,0.000769082,0.000225677,0.00116474,0.0159759,0.00236019,0.00136391,0.0013694,0.000532188,0.0165809,0.000602569,0.000658874,0.0172274,-0.0195197,0.00182156,0.000925102,-0.00791077
25,8,0,0,0,0,0,0,231.8,254,0,0,0,0,0,0,0,231.8,766,0,0.000616494,0.000797882,0.000478096,0.0157852,0.0022076,0.000867996,0.00117867,0.000455895,0.0732291,0.000106659,0.00107849,0.0180667,-0.0209692,0.000791588,0.000886955,-0.00867371
25,9,0,0,0,0,0,0,231.8,254,0,0,0,0,0,0,0,231.8,766,0,0.000921669,0.000645294,0.000516243,0.016777,0.000796166,0.000410232,0.00060646,0.000532188,-0.0483834,0.000564422,0.000849609,0.0171893,-0.02013,0.0012112,0.00111584,-0.00867371
26,0,0,0,0,0,0,0,231.8,254,0,0,0,0,0,0,0,231.8,766,0,0.00107426,0.000111236,0.000287361,0.0156326,0.000414696,0.00163094,0.00129311,-1.86916e-06,0.0231422,0.000793304,0.000735168,0.0163119,-0.0206259,0.000982323,0.00180248,-0.007453
26,1,0,0,0,0,0,0,231.8,254,0,0,0,0,0,0,0,231.8,766,0,0.000273171,0.00129379,0.00139362,0.0161285,0.00152096,0.000524673,-0.000347214,0.00076107,0.0731528,0.0002211,0.00199402,0.0151294,-0.0206259,0.000562706,0.000963249,-0.00928406
26,2,0,0,0,0,0,0,231.8,254,0,0,0,0,0,0,0,231.8,766,0,0.000845375,0.000454559,0.00101215,0.0176544,0.000605431,0.000829849,0.000911636,0.000341454,-0.0435769,0.000793304,0.000887756,0.0142901,-0.0200156,0.00109676,0.000734367,-0.00718597
26,3,0,0,0,0,0,0,231.8,254,0,0,0,0,0,0,0,231.8,766,0,0.000883522,0.00110306,0.00112659,0.0163574,-0.00103489,0.00105873,0.000797195,0.000837364,0.0269569,0.00132736,0.000811462,0.0165789,-0.0197485,0.00155453,0.00115398,-0.00863556
26,4,0,0,0,0,0,0,231.8,254,0,0,0,0,0,0,0,231.8,766,0,0.00130314,0.000607147,0.00173695,0.0173492,0.00262722,0.00094429,0.000720901,0.000875511,0.0885642,0.000945892,0.0010022,0.0172656,-0.0195197,0.00163082,0.00161175,-0.00806335
26,5,0,0,0,0,0,0,231.8,254,0,0,0,0,0,0,0,231.8,766,0,0.00103611,-7.94986e-05,0.000287361,0.0167389,0.00194057,0.000448379,0.00114052,0.000570335,-0.0478112,0.000831451,0.000811462,0.0140994,-0.0209692,6.67954e-05,0.000429192,-0.00764374
26,6,0,0,0,0,0,0,231.8,254,0,0,0,0,0,0,0,231.8,766,0,0.00122685,0.000492706,0.000516243,0.0173492,0.00792965,0.00105873,0.00121681,0.00133327,0.0258506,0.000411835,0.00111664,0.0142138,-0.0194052,0.00109676,0.00153545,-0.00821594
26,7,0,0,0,0,0,0,231.8,254,0,0,0,0,0,0,0,231.8,766,0,0.000692788,3.49423e-05,0.00139362,0.0164337,0.00865444,0.00121132,0.00152199,3.62778e-05,0.096041,0.00071701,0.00123108,0.0156253,-0.0206641,0.00124935,0.000658073,-0.00936035
26,8,0,0,0,0,0,0,231.8,254,0,0,0,0,0,0,0,231.8,766,0,-0.000947532,0.00125565,0.00139362,0.017044,0.00865444,0.000867996,0.000339432,0.000722923,-0.0520455,0.000335541,0.000811462,0.0147479,-0.0199011,6.67954e-05,0.00145916,-0.00813965
26,9,0,0,0,0,0,0,231.8,254,0,0,0,0,0,0,0,231.8,766,0,0.0017609,0.000607147,0.000401802,0.0157089,0.00831112,0.000105057,0.00129311,0.00026516,-0.0336968,0.000335541,0.000735168,0.0179904,-0.0200537,0.000791588,0.000619926,-0.00875
27,0,0,0,0,0,0,0,231.8,254,0,0,0,0,0,0,0,231.8,766,0,8.2436e-05,0.000378265,0.00093586,0.0163574,0.00720486,0.000829849,-0.000156479,0.000379601,-0.00676506,0.000259247,0.000201111,0.0206225,-0.0195578,0.000600853,-0.000524483,-0.00966553
27,1,0,0,0,0,0,0,231.8,254,0,0,0,0,0,0,0,231.8,766,0,0.000311318,0.00018753,-0.000132256,0.0166626,0.00655636,0.00124947,0.000873489,-7.81631e-05,0.061785,-0.000274811,0.000124817,0.0186007,-0.0210074,0.00147823,0.00172619,-0.00798706
27,2,0,0,0,0,0,0,231.8,254,0,0,0,0,0,0,0,231.8,766,0,0.00137943,0.00095047,0.00120289,0.0171585,0.00644192,0.00121132,0.000911636,0.000608482,0.0136054,0.000869598,0.000811462,0.0182574,-0.0199393,0.00105862,0.00123028,-0.00955109
27,3,0,0,0,0,0,0,231.8,254,0,0,0,0,0,0,0,231.8,766,0,0.000616494,0.000607147,9.66262e-05,0.0172348,0.00598415,0.00109688,0.00098793,0.000608482,-0.0423562,0.000411835,0.000391846,0.0161593,-0.0186804,0.00113491,0.00130657,-0.00791077
27,4,0,0,0,0,0,0,231.8,254,0,0,0,0,0,0,0,231.8,766,0,0.00107426,0.00133194,0.00124104,0.016777,0.0066708,0.00128761,0.00148384,0.000494041,0.0747932,0.000793304,0.000887756,0.014252,-0.0210455,0.001936,0.00126843,-0.00821594
27,5,0,0,0,0,0,0,231.8,254,0,0,0,0,0,0,0,231.8,766,0,0.0011124,0.00095047,0.000745125,0.0171966,0.00869259,0.00117317,0.000186844,0.000150719,0.00982887,0.00159439,0.0010022,0.00883511,-0.0197485,0.000562706,0.00142101,-0.00813965
27,6,0,0,0,0,0,0,231.8,254,0,0,0,0,0,0,0,231.8,766,0,0.00149387,0.0012175,0.00131733,0.0172348,0.0078915,0.00117317,-0.000156479,0.000722923,-0.041021,0.000373688,0.00184143,0.00399044,-0.0201682,0.000944176,0.00115398,-0.00768188
27,7,0,0,0,0,0,0,231.8,254,0,0,0,0,0,0,0,231.8,766,0,0.000883522,0.000874176,0.00116474,0.0164718,0.00735744,0.00170723,-0.000232773,0.000455895,0.0854362,0.000411835,0.000506287,0.000862388,-0.0192908,0.00124935,0.00103954,-0.0081778
27,8,0,0,0,0,0,0,231.8,254,0,0,0,0,0,0,0,231.8,766,0,0.000730935,0.000378265,0.0010503,0.0164718,0.00388607,0.00094429,0.000873489,0.000188866,0.0162757,0.000945892,0.000124817,0.014786,-0.0207022,0.00102047,0.00103954,-0.00829224
27,9,0,0,0,0,0,0,231.8,254,0,0,0,0,0,0,0,231.8,766,0,0.00130314,-0.000117646,0.000478096,0.0163955,0.00224575,0.000639114,0.00148384,0.000303307,-0.0460183,0.000449982,0.00126923,0.0205081,-0.0203589,0.0012875,-0.000371895,-0.00791077
28,0,0,0,0,0,0,0,231.8,254,0,0,0,0,0,0,0,231.8,766,0,0.0011887,0.000988617,0.000478096,0.0167007,0.00396236,0.00151649,0.00117867,0.00106625,0.0886787,0.000335541,0.000201111,0.0178378,-0.0205878,0.000944176,0.00058178,-0.00844482
28,1,0,0,0,0,0,0,231.8,254,0,0,0,0,0,0,0,231.8,766,0,0.000692788,0.0011412,0.000516243,0.0158996,0.0047253,0.000982437,0.000377579,-7.81631e-05,0.0216163,0.000488129,0.00107849,0.0127642,-0.0205496,0.00166897,0.000963249,-0.0093985
28,2,0,0,0,0,0,0,231.8,254,0,0,0,0,0,0,0,231.8,766,0,0.000997963,-0.000460968,0.000821419,0.0163955,0.00136837,0.000829849,0.000873489,0.000417748,-0.071386,0.000449982,0.000201111,0.014252,-0.0203207,0.000295677,0.000124016,-0.00867371
28,3,0,0,0,0,0,0,231.8,254,0,0,0,0,0,0,0,231.8,766,0,0.000387612,0.000759735,0.00093586,0.0164337,0.0009869,2.87627e-05,0.000568314,-0.000154457,-0.0146996,0.000182953,0.000620727,0.0182193,-0.0205115,0.000677147,0.00119213,-0.00894073
28,4,0,0,0,0,0,0,231.8,254,0,0,0,0,0,0,0,231.8,766,0,0.0005402,0.000492706,0.0010503,0.0167389,0.00239834,0.000181351,-0.000537949,0.000112572,0.0118888,0.000831451,0.00176514,0.0157779,-0.0213507,0.000982323,0.00134472,-0.00836853
28,5,0,0,0,0,0,0,231.8,254,0,0,0,0,0,0,0,231.8,766,0,-0.000451622,-0.000537262,0.00055439,0.0158996,0.00571712,0.000257645,0.000759048,-0.00099369,0.071894,-4.59291e-05,0.000277405,0.0115054,-0.0202063,0.000143089,-6.6719e-05,-0.00798706
28,6,0,0,0,0,0,0,231.8,254,0,0,0,0,0,0,0,231.8,766,0,0.000692788,-0.000460968,5.84793e-05,0.015213,0.00636562,-0.000200119,0.000530167,-0.000345192,-0.0535714,0.000678863,8.66698e-05,0.0142901,-0.0202826,0.000333824,0.00069622,-0.00936035
28,7,0,0,0,0,0,0,231.8,254,0,0,0,0,0,0,0,231.8,766,0,0.000273171,-7.94986e-05,-0.000666313,0.015747,0.0073193,0.000219498,0.000873489,7.44248e-05,0.0147498,-0.000274811,0.000620727,0.016083,-0.0205878,0.000867882,0.000734367,-0.00852112
28,8,0,0,0,0,0,0,231.8,254,0,0,0,0,0,0,0,231.8,766,0,-0.000527916,0.000530853,-1.78147e-05,0.0149078,0.00659451,-0.000276413,-0.000385361,3.62778e-05,0.0670875,0.0002211,1.03759e-05,0.0142901,-0.0208929,0.00025753,0.00115398,-0.00772003
28,9,0,0,0,0,0,0,231.8,254,0,0,0,0,0,0,0,231.8,766,0,0.000235024,0.000340118,-5.59617e-05,0.0154037,0.00457272,0.00056282,-0.000232773,0.000150719,-0.0507485,0.000984039,-0.0002948,0.0123065,-0.0205115,0.000181236,0.000352898,-0.00844482
29,0,0,0,0,0,0,0,231.8,254,0,0,0,0,0,0,0,231.8,766,0,0.000273171,-0.000270233,0.000363655,0.015213,0.00396236,0.000143204,0.000873489,-0.000535927,0.0203574,0.000793304,-0.000447388,0.0112002,-0.0203589,-9.49856e-06,-0.000905952,-0.00802521
29,1,0,0,0,0,0,0,231.8,254,0,0,0,0,0,0,0,231.8,766,0,0.000349465,-7.94986e-05,2.03323e-05,0.0148315,0.00136837,-0.000581589,0.000148697,0.000303307,0.0838721,-0.000465546,0.000162964,0.0140994,-0.0213126,-0.000390968,0.00161175,-0.00821594
29,2,0,0,0,0,0,0,231.8,254,0,0,0,0,0,0,0,231.8,766,0,0.00015873,0.000797882,0.00158436,0.0177688,0.00140652,0.0014402,0.00102608,-7.81631e-05,-0.0531899,0.00113663,0.00115479,0.0141757,-0.02013,0.00201229,0.000543633,-0.00947479
29,3,0,0,0,0,0,0,231.8,254,0,0,0,0,0,0,0,231.8,766,0,0.00137943,0.000454559,-5.59617e-05,0.0155182,0.00201687,0.000181351,-0.000194626,-0.000535927,0.0197089,-0.000274811,-0.00250732,0.0117724,-0.0209311,-0.00061985,0.00069622,-0.00829224
29,4,0,0,0,0,0,0,231.8,254,0,0,0,0,0,0,0,231.8,766,0,0.000692788,0.000530853,-0.000170403,0.0158615,-0.00141636,-0.000238266,0.000377579,3.62778e-05,0.0897849,0.000259247,0.000773315,0.0107425,-0.0206641,0.000867882,0.00103954,-0.0093985
29,5,0,0,0,0,0,0,231.8,254,0,0,0,0,0,0,0,231.8,766,0,0.0005402,-7.94986e-05,0.000325508,0.0155182,-0.00431553,0.000715408,0.00133125,-4.00161e-05,-0.0580727,0.000678863,8.66698e-05,0.014252,-0.0203589,0.00124935,0.000162163,-0.00829224
29,6,0,0,0,0,0,0,231.8,254,0,0,0,0,0,0,0,231.8,766,0,0.000654641,0.000378265,0.000974007,0.0162811,-0.00175968,-4.75312e-05,-0.000232773,0.0010281,-0.0393044,0.000984039,0.00107849,0.0168078,-0.0209311,0.000448265,0.000734367,-0.0106573
29,7,0,0,0,0,0,0,231.8,254,0,0,0,0,0,0,0,231.8,766,0,0.000196877,0.000607147,0.000974007,0.0166244,0.00155911,0.000524673,0.00148384,-0.000383339,-0.0119149,0.00205215,0.000162964,0.0113528,-0.0198248,0.000791588,-0.000448189,-0.00710968
29,8,0,0,0,0,0,0,231.8,254,0,0,0,0,0,0,0,231.8,766,0,0.000120583,0.00095047,0.000783272,0.015747,0.00277981,0.000486526,-0.000118332,0.000722923,0.059954,0.00071701,0.000620727,0.010361,-0.0213889,-4.76455e-05,0.00123028,-0.00718597
29,9,0,0,0,0,0,0,231.8,254,0,0,0,0,0,0,0,231.8,766,0,-0.000794944,-3.20468e-06,-0.000399284,0.0159378,0.00869259,0.000143204,0.000301285,0.000417748,0.010134,0.00106033,-0.0002948,0.0114672,-0.0216559,0.000333824,0.000619926,-0.00844482
30,0,0,0,0,0,0,0,231.8,254,0,0,0,0,0,0,0,231.8,766,0,-0.000413475,-0.000117646,0.000249214,0.0148697,0.00773891,0.000448379,-0.000156479,-0.00087925,-0.0476968,0.000869598,-0.00067627,0.0120776,-0.0206641,0.000562706,0.000391045,-0.00760559
30,1,0,0,0,0,0,0,231.8,254,0,0,0,0,0,0,0,231.8,766,0,8.2436e-05,0.00018753,-0.000513725,0.0152511,0.00571712,-0.000200119,0.000797195,0.000570335,0.0707496,0.000488129,0.000391846,0.0116961,-0.0207785,-0.000581703,0.00107769,-0.00894073
30,2,0,0,0,0,0,0,231.8,254,0,0,0,0,0,0,0,231.8,766,0,-0.000337181,-0.000117646,0.00017292,0.0149841,0.00522121,0.000105057,0.000263138,0.000341454,0.00551827,0.000869598,0.000429993,0.00852993,-0.0208548,0.000600853,8.58689e-05,-0.00855927
30,3,0,0,0,0,0,0,231.8,254,0,0,0,0,0,0,0,231.8,766,0,-0.000375328,-0.000232087,0.000211067,0.0156326,0.00445827,0.000295792,0.000644607,-0.000307045,-0.0451409,-0.000312958,-0.00101959,0.0129931,-0.0217322,-0.00061985,-0.000600777,-0.00863556
30,4,0,0,0,0,0,0,231.8,254,0,0,0,0,0,0,0,231.8,766,0,-0.000146446,0.000454559,0.000516243,0.0156326,0.00529751,-0.000467148,-3.89107e-06,-0.000307045,0.0832999,0.00071701,0.000124817,0.0156253,-0.0212363,0.0012112,0.000886955,-0.00909332
30,5,0,0,0,0,0,0,231.8,254,0,0,0,0,0,0,0,231.8,766,0,-0.000184593,0.000645294,0.000745125,0.0164337,0.00434383,0.000600967,-0.000118332,-0.000307045,0.0138343,0.000602569,0.000353699,0.0162738,-0.0199393,-0.00023838,0.000658073,-0.00894073
30,6,0,0,0,0,0,0,231.8,254,0,0,0,0,0,0,0,231.8,766,0,4.4289e-05,0.000569,0.000745125,0.0166244,0.0028561,0.000906143,0.000530167,0.000379601,-0.0493752,0.0014418,-0.000104065,0.0197451,-0.0208167,0.00109676,-0.000371895,-0.00955109
30,7,0,0,0,0,0,0,231.8,254,0,0,0,0,0,0,0,231.8,766,0,0.000120583,-0.000613556,0.000439949,0.0155944,0.000567284,-0.000467148,-0.000499802,-4.00161e-05,0.0860084,0.000297394,-0.000905151,0.0197451,-0.0215033,-0.000810585,0.000543633,-0.00821594
30,8,0,0,0,0,0,0,231.8,254,0,0,0,0,0,0,0,231.8,766,0,0.000578347,0.000530853,5.84793e-05,0.0155944,-0.000195656,0.00132576,0.00060646,-0.000268898,0.0204337,0.000106659,-0.000256653,0.0230639,-0.0217322,0.000639,0.00069622,-0.00791077
30,9,0,0,0,0,0,0,231.8,254,0,0,0,0,0,0,0,231.8,766,0,0.000311318,0.000149383,2.03323e-05,0.0158233,0.00152096,0.000524673,0.00106422,0.00121883,-0.0734078,0.000335541,-0.000752564,0.0246661,-0.0207022,0.001936,0.000467339,-0.00794891
31,0,0,0,0,0,0,0,231.8,254,0,0,0,0,0,0,0,231.8,766,0,0.000692788,0.000797882,0.00127918,0.0158233,0.00377163,0.00113502,0.000797195,-0.000688515,-0.0160348,0.00220474,-0.00105774,0.0195163,-0.0206641,0.000753441,0.000619926,-0.0075293
31,1,0,0,0,0,0,0,231.8,254,0,0,0,0,0,0,0,231.8,766,0,0.000273171,0.000530853,0.00101215,0.0158996,0.00583157,0.000372085,0.000301285,0.000188866,0.0102485,0.000449982,0.000391846,0.01944,-0.0207785,-0.00061985,0.000848808,-0.00756744
31,2,0,0,0,0,0,0,231.8,254,0,0,0,0,0,0,0,231.8,766,0,-0.000451622,0.000378265,0.00055439,0.0158615,0.00564083,0.000639114,0.000377579,0.00026516,0.0704063,0.000755157,0.000353699,0.015549,-0.0207785,6.67954e-05,0.00058178,-0.0099707
31,3,0,0,0,0,0,0,231.8,254,0,0,0,0,0,0,0,231.8,766,0,0.00015873,0.000492706,0.00093586,0.0154037,0.00297054,0.000524673,0.000339432,-0.000612221,-0.0539147,0.00113663,0.000506287,0.014252,-0.0208929,0.000448265,-0.000905952,-0.00779633
31,4,0,0,0,0,0,0,231.8,254,0,0,0,0,0,0,0,231.8,766,0,0.00015873,0.00018753,0.000287361,0.0155182,0.00400051,6.69097e-05,0.000339432,0.000913658,0.0144447,0.000526275,-0.000752564,0.0169223,-0.0203589,0.000715294,0.00058178,-0.00859741
31,5,0,0,0,0,0,0,231.8,254,0,0,0,0,0,0,0,231.8,766,0,-0.000909385,-0.000384674,-9.41086e-05,0.0157852,0.00476345,2.87627e-05,0.000301285,0.000150719,0.0677741,0.000984039,0.000239258,0.0138324,-0.0210455,0.000906029,0.00058178,-0.00871185
31,6,0,0,0,0,0,0,231.8,254,0,0,0,0,0,0,0,231.8,766,0,0.000273171,0.000378265,0.000478096,0.0151748,0.000796166,0.000410232,-0.000194626,0.000150719,-0.052694,0.000984039,-0.000104065,0.0118869,-0.0206641,0.000867882,-0.000104866,-0.00768188
31,7,0,0,0,0,0,0,231.8,254,0,0,0,0,0,0,0,231.8,766,0,8.2436e-05,-0.000117646,0.000439949,0.0160141,0.000185814,0.00121132,0.000759048,-0.000230751,0.0207008,0.000106659,-0.000371094,0.00742367,-0.0204352,0.0012875,0.000429192,-0.00886444
31,8,0,0,0,0,0,0,231.8,254,0,0,0,0,0,0,0,231.8,766,0,0.00107426,0.00102676,0.000706978,0.0154037,0.00491604,0.000219498,0.000682754,0.000722923,0.0850547,0.00163254,0.000620727,0.0126117,-0.0197485,0.00136379,0.000391045,-0.00649933
31,9,0,0,0,0,0,0,231.8,254,0,0,0,0,0,0,0,231.8,766,0,0.00103611,0.000874176,0.000783272,0.017044,0.00396236,0.00140205,0.00140755,0.000646629,-0.0542962,-8.40761e-05,0.000506287,0.014252,-0.0200156,0.0012875,0.00142101,-0.00764374
32,0,0,0,0,0,0,0,231.8,254,0,0,0,0,0,0,0,231.8,766,0,0.000692788,0.000836029,0.00108845,0.0162048,0.00426754,0.00056282,0.000873489,0.000646629,0.0200904,0.00193771,0.000506287,0.015549,-0.0213126,0.00216488,0.000734367,-0.00787262
32,1,0,0,0,0,0,0,231.8,254,0,0,0,0,0,0,0,231.8,766,0,0.000235024,0.00156082,0.000630684,0.0160522,0.00430569,0.00159279,0.00049202,0.000570335,0.0914634,0.000831451,0.000925903,0.0205081,-0.0208548,0.000410118,0.00069622,-0.00787262
32,2,0,0,0,0,0,0,231.8,254,0,0,0,0,0,0,0,231.8,766,0,8.2436e-05,0.000225677,0.000287361,0.0173492,0.00442013,0.000715408,0.000377579,7.44248e-05,-0.0580727,0.00174698,8.66698e-05,0.0115817,-0.0201682,0.00151638,0.00069622,-0.00791077
32,3,0,0,0,0,0,0,231.8,254,0,0,0,0,0,0,0,231.8,766,0,-0.000375328,-0.000117646,0.000478096,0.0163192,0.00476345,0.00113502,0.000339432,0.000303307,-0.0402581,0.00132736,1.03759e-05,0.0137942,-0.0207022,0.00113491,0.000848808,-0.00737671
32,4,0,0,0,0,0,0,231.8,254,0,0,0,0,0,0,0,231.8,766,0,0.000654641,0.00125565,0.000859566,0.0168914,0.00693783,0.00132576,0.000568314,0.000608482,-0.00836723,0.000488129,0.000353699,0.0179522,-0.0199393,0.00159267,0.000162163,-0.007453
32,5,0,0,0,0,0,0,231.8,254,0,0,0,0,0,0,0,231.8,766,0,-0.000375328,-0.00019394,0.000211067,0.015747,0.00606045,0.000181351,0.000644607,0.000188866,0.104014,0.00128921,0.000697021,0.0150531,-0.0207785,0.000295677,-2.8572e-05,-0.00756744
32,6,0,0,0,0,0,0,231.8,254,0,0,0,0,0,0,0,231.8,766,0,-7.01519e-05,-0.000270233,-0.000551872,0.0152893,0.00510677,0.000982437,0.000263138,0.00026516,0.204684,-0.000503693,0.000124817,0.0189822,-0.0215033,0.000829735,0.000772514,-0.00775818
32,7,0,0,0,0,0,0,231.8,254,0,0,0,0,0,0,0,231.8,766,0,0.000387612,0.000454559,-5.59617e-05,0.01548,0.00529751,0.000524673,0.000301285,0.000532188,0.160738,0.000831451,-0.00109589,0.0136798,-0.0208167,0.000486412,-0.000791511,-0.00836853
32,8,0,0,0,0,0,0,231.8,254,0,0,0,0,0,0,0,231.8,766,0,-0.000871238,3.49423e-05,0.000745125,0.0159759,0.00926479,0.000410232,0.000301285,-0.000154457,0.111338,0.000831451,0.000391846,0.00677517,-0.0220755,0.000143089,-0.000677071,-0.00852112
32,9,0,0,0,0,0,0,231.8,254,0,0,0,0,0,0,0,231.8,766,0,0.000120583,0.000607147,-0.000551872,0.0147934,0.0110958,-0.000123825,0.000377579,0.000341454,-0.0735223,0.000297394,1.03759e-05,0.00822475,-0.0202063,0.00174526,0.000391045,-0.00867371
33,0,0,0,0,0,0,0,231.8,254,0,0,0,0,0,0,0,231.8,766,0,0.000425759,0.000149383,0.000325508,0.0158996,0.00457272,0.000486526,0.000415726,0.000608482,-0.10816,-0.000465546,8.66698e-05,0.00814846,-0.0211981,-0.000162086,0.00191692,-0.00779633
33,1,0,0,0,0,0,0,231.8,254,0,0,0,0,0,0,0,231.8,766,0,0.000120583,0.000797882,0.000668831,0.0157089,0.00487789,0.000829849,0.000720901,-7.81631e-05,0.0388969,0.000144806,-0.000218506,0.00368526,-0.0207404,0.000982323,-0.000982246,-0.0081778
33,2,0,0,0,0,0,0,231.8,254,0,0,0,0,0,0,0,231.8,766,0,0.00122685,0.00018753,0.000249214,0.0164718,0.00594601,0.000219498,0.000949783,-0.000192604,-0.0367104,0.0014418,0.000735168,0.00673702,-0.0204733,0.00159267,0.000619926,-0.0101996
33,3,0,0,0,0,0,0,231.8,254,0,0,0,0,0,0,0,231.8,766,0,0.000196877,0.000454559,0.000287361,0.0168914,0.00430569,0.00094429,0.00049202,0.000303307,-0.0973641,-0.000351105,0.000201111,0.0135272,-0.0206641,0.00109676,0.00138287,-0.007453
33,4,0,0,0,0,0,0,231.8,254,0,0,0,0,0,0,0,231.8,766,0,0.0011124,0.000225677,0.000668831,0.0166626,0.00319942,0.00117317,0.00110237,0.00076107,0.0488151,0.00117477,0.00149811,0.0175326,-0.0192908,0.00170712,0.0022221,-0.00974182
33,5,0,0,0,0,0,0,231.8,254,0,0,0,0,0,0,0,231.8,766,0,0.000502053,0.000301971,0.000439949,0.0161285,0.00277981,0.00124947,0.00125496,-0.000612221,-0.0178277,0.000984039,-0.000599976,0.0135653,-0.0209311,2.86484e-05,0.000238457,-0.00848297
33,6,0,0,0,0,0,0,231.8,254,0,0,0,0,0,0,0,231.8,766,0,-7.01519e-05,0.000225677,-0.000132256,0.0155182,0.000414696,-0.000657883,0.000377579,0.000875511,-0.107168,0.000793304,-0.000142212,0.0174945,-0.0215033,0.00124935,0.000162163,-0.00897888
33,7,0,0,0,0,0,0,231.8,254,0,0,0,0,0,0,0,231.8,766,0,0.000311318,0.00152267,0.00139362,0.0158233,-0.00130192,0.00109688,0.000682754,0.000150719,-0.0441872,0.00117477,0.000391846,0.0161212,-0.0211981,0.00140194,0.000658073,-0.00779633
33,8,0,0,0,0,0,0,231.8,254,0,0,0,0,0,0,0,231.8,766,0,-0.000184593,0.000607147,0.00093586,0.0164718,-0.000424538,0.000295792,0.000720901,0.000494041,-0.0112283,-8.40761e-05,8.66698e-05,0.0136035,-0.0210837,0.00124935,0.000772514,-0.00848297
33,9,0,0,0,0,0,0,231.8,254,0,0,0,0,0,0,0,231.8,766,0,0.000463906,0.000836029,-9.41086e-05,0.0154419,0.000605431,0.000143204,0.00114052,0.000188866,0.047747,0.00140366,0.000773315,0.0094836,-0.0216559,0.000753441,0.00069622,-0.00741486
34,0,0,0,0,0,0,0,231.8,254,0,0,0,0,0,0,0,231.8,766,0,0.000578347,0.00144638,0.000821419,0.0168533,0.00297054,0.00201241,0.00114052,7.44248e-05,-0.0717294,0.00125107,-0.000371094,0.00700405,-0.0197485,0.000906029,0.00115398,-0.00783447
34,1,0,0,0,0,0,0,231.8,254,0,0,0,0,0,0,0,231.8,766,0,0.000807228,0.000874176,0.00093586,0.0168151,0.00495419,0.00117317,0.000720901,0.000684776,0.00338203,0.000755157,0.000620727,0.0126879,-0.0192526,0.00208858,0.00241283,-0.00791077
34,2,0,0,0,0,0,0,231.8,254,0,0,0,0,0,0,0,231.8,766,0,0.00145573,0.000492706,0.000668831,0.0174636,0.00194057,0.000867996,0.00159828,0.000150719,0.0569785,0.000297394,0.00134552,0.0134509,-0.0207404,0.000524559,0.00107769,-0.00897888
34,3,0,0,0,0,0,0,231.8,254,0,0,0,0,0,0,0,231.8,766,0,0.000273171,0.000492706,0.000859566,0.0164718,0.0022839,0.00117317,0.00106422,0.000455895,-0.0586831,-0.00054184,-2.77711e-05,0.0123065,-0.0195197,0.0012875,0.00172619,-0.00920776
34,4,0,0,0,0,0,0,231.8,254,0,0,0,0,0,0,0,231.8,766,0,0.000196877,0.00018753,-0.000590019,0.015747,0.00297054,0.000257645,0.00011055,0.000379601,0.0145591,0.000144806,0.000544433,0.0122683,-0.0224188,0.00117306,0.000886955,-0.00852112
34,5,0,0,0,0,0,0,231.8,254,0,0,0,0,0,0,0,231.8,766,0,0.00126499,0.000301971,0.00055439,0.015747,0.0054501,0.00121132,0.00121681,0.000303307,0.0795234,-8.40761e-05,-0.000104065,0.0136416,-0.0213126,0.000448265,-0.000219307,-0.00836853
34,6,0,0,0,0,0,0,231.8,254,0,0,0,0,0,0,0,231.8,766,0,0.000921669,0.00182785,0.00150806,0.0168151,0.00571712,0.000906143,0.000873489,0.00140957,-0.0546014,0.00155624,0.000811462,0.0144046,-0.0197485,0.000562706,0.00069622,-0.0081015
34,7,0,0,0,0,0,0,231.8,254,0,0,0,0,0,0,0,231.8,766,0,0.000196877,-0.000346527,0.000668831,0.01548,0.00617489,2.87627e-05,0.000415726,-1.86916e-06,0.0196326,0.000182953,0.000391846,0.0128787,-0.0213889,0.000219383,-0.000371895,-0.00863556
34,8,0,0,0,0,0,0,231.8,254,0,0,0,0,0,0,0,231.8,766,0,0.0011887,-0.000346527,-5.59617e-05,0.0158233,0.00442013,0.000295792,-0.000537949,0.000227013,0.0912727,0.000449982,-0.000447388,0.0140612,-0.0210837,0.000600853,0.00107769,-0.00901703
34,9,0,0,0,0,0,0,231.8,254,0,0,0,0,0,0,0,231.8,766,0,-0.000451622,-0.000422821,-0.000742607,0.0162811,0.00167355,0.000486526,0.00011055,0.000303307,-0.0541817,0.000182953,0.00153625,0.0166934,-0.0205115,0.000639,0.00153545,-0.00852112
35,0,0,0,0,0,0,0,231.8,254,0,0,0,0,0,0,0,231.8,766,0,0.000692788,-3.20468e-06,0.00139362,0.0166244,0.00258907,0.00102058,0.00102608,0.000684776,-0.0352227,0.000793304,0.000925903,0.0186007,-0.0205878,0.000867882,-6.6719e-05,-0.00772003
35,1,0,0,0,0,0,0,231.8,254,0,0,0,0,0,0,0,231.8,766,0,0.0005402,3.49423e-05,0.000668831,0.0163955,0.0035046,0.000600967,3.42559e-05,0.000150719,-0.00714653,-0.00119034,0.000925903,0.0167315,-0.02013,0.000829735,0.000734367,-0.00867371
35,2,0,0,0,0,0,0,231.8,254,0,0,0,0,0,0,0,231.8,766,0,0.000463906,-0.000613556,-1.78147e-05,0.0152893,0.0028561,0.00102058,0.000453873,0.000303307,0.0620139,-0.000236664,-0.000409241,0.0173419,-0.0204733,0.000639,0.00069622,-0.00875
35,3,0,0,0,0,0,0,231.8,254,0,0,0,0,0,0,0,231.8,766,0,8.2436e-05,0.000530853,2.03323e-05,0.0154037,0.0016354,-0.000276413,0.000797195,0.000188866,0.0141013,0.000373688,0.000429993,0.0190203,-0.0195197,0.000181236,0.00119213,-0.00920776
35,4,0,0,0,0,0,0,231.8,254,0,0,0,0,0,0,0,231.8,766,0,0.0005402,0.000645294,0.000783272,0.0161666,0.00464901,-8.56782e-05,0.00140755,0.000227013,-0.0388848,0.000755157,0.0016507,0.0181811,-0.0216177,0.00166897,0.00199322,-0.00890259
35,5,0,0,0,0,0,0,231.8,254,0,0,0,0,0,0,0,231.8,766,0,0.00134129,0.00129379,0.000287361,0.0172348,0.00651821,0.000867996,0.00106422,-1.86916e-06,0.0762428,0.000640716,-0.000332947,0.0160067,-0.0207404,0.000639,0.000429192,-0.00691895
35,6,0,0,0,0,0,0,231.8,254,0,0,0,0,0,0,0,231.8,766,0,0.0005402,0.000454559,0.000668831,0.0170822,0.00529751,0.000715408,0.00190346,0.000951805,0.0126517,0.000678863,0.00123108,0.0190585,-0.0197867,0.00136379,0.00107769,-0.00741486
35,7,0,0,0,0,0,0,231.8,254,0,0,0,0,0,0,0,231.8,766,0,0.000959816,0.000988617,0.00093586,0.0171585,0.00800594,0.00147835,0.00167458,0.000494041,-0.036329,0.000831451,0.00096405,0.0200885,-0.0211981,0.000371971,0.00103954,-0.00913147
35,8,0,0,0,0,0,0,231.8,254,0,0,0,0,0,0,0,231.8,766,0,0.00115055,0.00106491,0.00101215,0.016777,0.00548824,0.00205055,0.000453873,0.000150719,0.0892127,0.000640716,0.00153625,0.020737,-0.0191763,0.00182156,0.00161175,-0.00783447
35,9,0,0,0,0,0,0,231.8,254,0,0,0,0,0,0,0,231.8,766,0,0.00122685,-0.000651703,0.000821419,0.0171203,0.00495419,0.000333939,0.00110237,0.000684776,0.0194419,-0.000122223,0.000887756,0.0179141,-0.0195959,0.000944176,0.00214581,-0.00836853
36,0,0,0,0,0,0,0,231.8,254,0,0,0,0,0,0,0,231.8,766,0,0.000654641,0.000416412,0.000706978,0.0164337,0.00262722,0.00105873,0.00098793,0.000112572,-0.0402962,-0.000122223,0.000162964,0.0108569,-0.0207022,0.00117306,0.00145916,-0.00756744
36,1,0,0,0,0,0,0,231.8,254,0,0,0,0,0,0,0,231.8,766,0,0.000502053,0.000721588,0.000287361,0.0155944,0.000147667,0.000753555,0.000530167,0.00026516,0.0919975,0.000411835,0.000544433,0.00967434,-0.0205115,0.000906029,-0.000371895,-0.00913147
36,2,0,0,0,0,0,0,231.8,254,0,0,0,0,0,0,0,231.8,766,0,0.000578347,-4.13517e-05,0.000249214,0.0169296,-0.000615272,6.69097e-05,0.000911636,0.000303307,0.0242103,0.000564422,0.00104034,0.0151294,-0.0217322,0.00102047,0.00107769,-0.00897888
36,3,0,0,0,0,0,0,231.8,254,0,0,0,0,0,0,0,231.8,766,0,0.000425759,-0.000232087,0.000745125,0.0163955,-0.00305668,0.000219498,0.000720901,0.000227013,-0.0663888,0.000640716,0.00107849,0.0143283,-0.0204733,0.000677147,0.000314751,-0.00646118
36,4,0,0,0,0,0,0,231.8,254,0,0,0,0,0,0,0,231.8,766,0,0.000845375,0.000263824,0.000974007,0.0162811,-0.00122562,0.000791702,0.000949783,0.000646629,-0.0104653,0.000564422,4.85228e-05,0.0100177,-0.0201682,0.000791588,0.00138287,-0.00741486
36,5,0,0,0,0,0,0,231.8,254,0,0,0,0,0,0,0,231.8,766,0,0.00122685,3.49423e-05,0.000401802,0.0152893,0.000529137,-8.56782e-05,0.00114052,3.62778e-05,0.0171149,0.000335541,0.000658874,0.0120395,-0.0210837,0.000410118,0.000429192,-0.00798706
36,6,0,0,0,0,0,0,231.8,254,0,0,0,0,0,0,0,231.8,766,0,8.2436e-05,0.000378265,0.000363655,0.0158233,0.00640377,0.000333939,-8.0185e-05,0.000532188,0.0726188,0.000297394,-0.000142212,0.0179904,-0.0205496,0.00025753,0.00069622,-0.00882629
36,7,0,0,0,0,0,0,231.8,254,0,0,0,0,0,0,0,231.8,766,0,0.000845375,-4.13517e-05,0.00101215,0.0155182,0.00876888,0.000867996,0.000835342,0.000150719,-0.0501763,-0.000236664,0.000925903,0.0143283,-0.0206259,0.000982323,0.000658073,-0.00855927
36,8,0,0,0,0,0,0,231.8,254,0,0,0,0,0,0,0,231.8,766,0,0.000502053,-0.000613556,0.000439949,0.0153274,0.00743374,0.000829849,0.00060646,-0.000230751,0.0194419,0.0002211,0.000735168,0.00875881,-0.0208548,0.000486412,0.00107769,-0.00936035
36,9,0,0,0,0,0,0,231.8,254,0,0,0,0,0,0,0,231.8,766,0,0.000502053,-7.94986e-05,-0.000628166,0.0157852,0.00689968,-0.000123825,-4.2038e-05,-1.86916e-06,0.0694144,6.85118e-05,0.00046814,0.0130694,-0.0209311,0.000906029,-0.000448189,-0.00916962
37,0,0,0,0,0,0,0,231.8,254,0,0,0,0,0,0,0,231.8,766,0,-7.01519e-05,-0.000232087,0.000516243,0.0152511,0.00487789,0.000295792,0.000530167,0.000188866,-0.0472771,0.000488129,0.0010022,0.0150912,-0.0202826,0.000448265,0.000276604,-0.00798706
37,1,0,0,0,0,0,0,231.8,254,0,0,0,0,0,0,0,231.8,766,0,0.000425759,-0.000117646,-0.000742607,0.0153656,0.00224575,0.000372085,0.000644607,-1.86916e-06,0.0227988,-0.000389252,-0.000218506,0.0146716,-0.0215796,-9.49856e-06,-0.000982246,-0.00840668
37,2,0,0,0,0,0,0,231.8,254,0,0,0,0,0,0,0,231.8,766,0,0.000845375,-3.20468e-06,0.000630684,0.0146408,0.0029324,0.000105057,0.00106422,0.000684776,0.0857032,0.000335541,0.000124817,0.0174945,-0.0199393,0.000982323,0.0015736,-0.00821594
37,3,0,0,0,0,0,0,231.8,254,0,0,0,0,0,0,0,231.8,766,0,0.000349465,-3.20468e-06,0.000592537,0.0157852,0.00491604,-0.000467148,0.000377579,0.000150719,-0.0502145,0.000564422,-6.59181e-05,0.0167315,-0.0206259,-0.000963173,0.00119213,-0.00718597
37,4,0,0,0,0,0,0,231.8,254,0,0,0,0,0,0,0,231.8,766,0,0.0005402,0.00117935,0.000325508,0.0159759,0.00506863,0.000753555,0.000949783,0.00110439,0.0222648,0.000869598,0.00138367,0.0166934,-0.0203207,0.00147823,0.00168804,-0.0093985
37,5,0,0,0,0,0,0,231.8,254,0,0,0,0,0,0,0,231.8,766,0,0.000387612,0.000988617,0.00116474,0.0172348,0.00327572,0.000753555,0.000339432,0.00106625,0.0912727,0.00121292,0.000887756,0.0181048,-0.0195578,0.000982323,0.00210766,-0.0100089
37,6,0,0,0,0,0,0,231.8,254,0,0,0,0,0,0,0,231.8,766,0,0.000730935,0.000912323,0.00139362,0.0166244,0.0047253,0.000448379,0.000568314,0.000951805,-0.0550973,0.00197586,0.0010022,0.0153964,-0.0205115,0.000410118,0.000238457,-0.00760559
37,7,0,0,0,0,0,0,231.8,254,0,0,0,0,0,0,0,231.8,766,0,0.000921669,-0.000346527,0.00120289,0.0162811,0.00419125,0.000410232,0.000873489,0.000188866,-0.0377404,0.0002211,0.000697021,0.00978878,-0.0207404,0.000867882,0.000810661,-0.00855927
37,8,0,0,0,0,0,0,231.8,254,0,0,0,0,0,0,0,231.8,766,0,0.000654641,3.49423e-05,0.000211067,0.0161666,0.00506863,0.000867996,0.000644607,0.000455895,-0.00878685,-0.000274811,0.00046814,0.0103228,-0.0197485,0.00025753,0.00210766,-0.00722412
37,9,0,0,0,0,0,0,231.8,254,0,0,0,0,0,0,0,231.8,766,0,0.0005402,0.000530853,0.00055439,0.0158233,0.00457272,0.000600967,7.24029e-05,0.000112572,0.0610221,0.000106659,-0.000218506,0.0153964,-0.0203589,0.000181236,0.000314751,-0.00882629
38,0,0,0,0,0,0,0,231.8,254,0,0,0,0,0,0,0,231.8,766,0,0.000616494,0.000569,-9.41086e-05,0.0166626,0.00319942,0.00056282,0.000186844,0.000112572,0.011164,-0.000312958,-0.000447388,0.0149005,-0.0200537,0.0012875,-0.00018116,-0.00916962
38,1,0,0,0,0,0,0,231.8,254,0,0,0,0,0,0,0,231.8,766,0,0.000387612,0.000607147,0.000859566,0.0156707,0.00255093,-0.000429001,0.000797195,0.000303307,-0.0463235,3.03648e-05,0.000239258,0.011658,-0.022457,-0.000200233,0.00142101,-0.00802521
38,2,0,0,0,0,0,0,231.8,254,0,0,0,0,0,0,0,231.8,766,0,0.000654641,0.000721588,5.84793e-05,0.0161666,0.00247463,0.000486526,0.000339432,-0.000268898,0.0701774,0.000831451,0.000925903,0.0116961,-0.0212363,2.86484e-05,0.000124016,-0.00836853
38,3,0,0,0,0,0,0,231.8,254,0,0,0,0,0,0,0,231.8,766,0,-0.000108299,0.00018753,0.000401802,0.0157852,0.00255093,0.00102058,0.000224991,-0.000383339,0.00712044,0.000869598,-6.59181e-05,0.00410488,-0.0193289,0.00102047,-0.000600777,-0.00714783
38,4,0,0,0,0,0,0,231.8,254,0,0,0,0,0,0,0,231.8,766,0,0.000311318,0.00110306,-1.78147e-05,0.0163955,0.00110134,0.000410232,0.000568314,0.00026516,-0.0434624,0.000488129,0.00096405,0.00963619,-0.0205496,0.00166897,0.0015736,-0.00833038
38,5,0,0,0,0,0,0,231.8,254,0,0,0,0,0,0,0,231.8,766,0,-0.000184593,0.000912323,0.00143177,0.0168914,-0.000119362,0.00109688,0.00098793,0.00076107,0.0835288,0.000793304,0.000925903,0.0150912,-0.0195578,0.00117306,0.000925102,-0.00859741
38,6,0,0,0,0,0,0,231.8,254,0,0,0,0,0,0,0,231.8,766,0,-0.000299034,0.000645294,0.00162251,0.0167389,-0.00122562,0.00102058,0.000949783,0.000303307,0.0145972,0.00140366,-0.000561829,0.0130694,-0.0202444,0.000448265,0.00115398,-0.00737671
38,7,0,0,0,0,0,0,231.8,254,0,0,0,0,0,0,0,231.8,766,0,0.000845375,-0.00030838,2.03323e-05,0.015213,-0.002103,0.00102058,0.000682754,0.000455895,-0.0464761,0.00132736,0.000811462,0.0163882,-0.0203589,0.00170712,0.000658073,-0.00787262
38,8,0,0,0,0,0,0,231.8,254,0,0,0,0,0,0,0,231.8,766,0,0.00172276,0.0025145,0.00124104,0.0168151,-0.00076786,0.00151649,0.000911636,0.000989952,0.0893653,0.00147995,0.00130737,0.0166171,-0.0200156,0.000600853,0.000810661,-0.00878815
38,9,0,0,0,0,0,0,231.8,254,0,0,0,0,0,0,0,231.8,766,0,0.000730935,0.00129379,0.000821419,0.0157089,-0.00237003,0.00109688,0.000377579,0.00076107,0.0213493,0.000373688,0.00138367,0.01841,-0.0205496,0.00147823,0.00145916,-0.00813965
39,0,0,0,0,0,0,0,231.8,254,0,0,0,0,0,0,0,231.8,766,0,0.000730935,0.00137009,0.000859566,0.0166244,0.00110134,0.000867996,0.00060646,0.000112572,-0.0732934,0.00147995,0.000773315,0.0162356,-0.0207022,-0.000734291,0.000162163,-0.00775818
39,1,0,0,0,0,0,0,231.8,254,0,0,0,0,0,0,0,231.8,766,0,0.000235024,0.000530853,0.000821419,0.0156326,0.000872459,0.000219498,0.000453873,0.00137142,-0.0160729,0.000373688,8.66698e-05,0.0135653,-0.0212744,0.000143089,0.00069622,-0.00813965
39,2,0,0,0,0,0,0,231.8,254,0,0,0,0,0,0,0,231.8,766,0,0.00015873,0.000263824,0.000249214,0.0164337,0.000376549,0.000105057,0.000224991,-0.00011631,0.0149406,0.000144806,-6.59181e-05,0.0173037,-0.0207785,0.000562706,-0.000295601,-0.00783447
39,3,0,0,0,0,0,0,231.8,254,0,0,0,0,0,0,0,231.8,766,0,0.000235024,-0.00030838,-1.78147e-05,0.0158615,0.000719872,0.000410232,-0.00027092,0.000150719,0.0727714,-0.000122223,-0.000714417,0.0155871,-0.0207404,0.00025753,0.0010014,-0.00909332
39,4,0,0,0,0,0,0,231.8,254,0,0,0,0,0,0,0,231.8,766,0,0.000311318,0.000492706,0.00093586,0.0159378,0.00358089,0.000448379,3.42559e-05,0.000417748,-0.055555,0.000678863,0.000162964,0.0120013,-0.0218085,0.000410118,0.00020031,-0.00867371
39,5,0,0,0,0,0,0,231.8,254,0,0,0,0,0,0,0,231.8,766,0,0.00115055,7.30893e-05,0.000592537,0.015213,0.00049099,-9.38424e-06,-0.000461655,0.000341454,0.0134528,0.0014418,0.00058258,0.0113528,-0.0209692,0.00109676,-0.00018116,-0.0075293
39,6,0,0,0,0,0,0,231.8,254,0,0,0,0,0,0,0,231.8,766,0,0.000311318,-0.000613556,-0.00032299,0.0164337,0.00155911,0.000639114,0.000301285,0.000303307,0.0667823,-0.000198517,0.000201111,0.0132602,-0.0202444,0.000600853,8.58689e-05,-0.00737671
39,7,0,0,0,0,0,0,231.8,254,0,0,0,0,0,0,0,231.8,766,0,0.000807228,0.000301971,0.000401802,0.0152893,0.00342831,0.000219498,0.000263138,0.000532188,-0.0516259,0.00132736,0.000353699,0.0115054,-0.0215796,0.000753441,0.00103954,-0.0068808
39,8,0,0,0,0,0,0,231.8,254,0,0,0,0,0,0,0,231.8,766,0,0.000425759,0.000988617,5.84793e-05,0.0159759,0.00556454,0.000791702,-0.000461655,0.00106625,0.0194419,0.00147995,0.00130737,0.0131076,-0.0197485,0.000906029,-0.000715218,-0.00741486
39,9,0,0,0,0,0,0,231.8,254,0,0,0,0,0,0,0,231.8,766,0,0.000959816,0.00106491,0.00143177,0.0163955,0.0035046,0.000982437,0.00098793,0.00076107,0.083834,0.00125107,0.000162964,0.017113,-0.021427,0.00117306,0.00149731,-0.00714783
40,0,0,0,0,0,0,0,231.8,254,0,0,0,0,0,0,0,231.8,766,0,0.000616494,0.000111236,0.000516243,0.0163574,0.00174984,0.000600967,-0.000156479,0.00148586,-0.0542962,0.00155624,0.000697021,0.0183718,-0.0209692,0.000867882,0.00020031,-0.00791077
40,1,0,0,0,0,0,0,231.8,254,0,0,0,0,0,0,0,231.8,766,0,0.0011887,-4.13517e-05,0.000745125,0.0159378,0.00655636,0.000829849,0.00106422,7.44248e-05,0.0194419,0.000297394,0.000658874,0.0176471,-0.0210455,0.000448265,9.57493e-06,-0.00840668
40,2,0,0,0,0,0,0,231.8,254,0,0,0,0,0,0,0,231.8,766,0,0.00153202,0.000797882,0.0010503,0.0165481,0.00670895,0.000219498,0.00106422,0.00114254,0.0907386,0.00117477,0.00096405,0.0221484,-0.0198248,0.00178341,0.00176434,-0.00966553
40,3,0,0,0,0,0,0,231.8,254,0,0,0,0,0,0,0,231.8,766,0,-0.000756797,0.00133194,0.000478096,0.0167389,0.0040768,0.00174538,0.000644607,0.000608482,-0.0570428,0.0014418,0.000887756,0.0203173,-0.020397,0.00117306,0.00153545,-0.00672821
40,4,0,0,0,0,0,0,231.8,254,0,0,0,0,0,0,0,231.8,766,0,0.00015873,0.000301971,0.000287361,0.0153274,0.00445827,2.87627e-05,0.000453873,-0.000154457,-0.0401818,0.000335541,0.000239258,0.0166171,-0.02116,0.000867882,0.00103954,-0.00916962
40,5,0,0,0,0,0,0,231.8,254,0,0,0,0,0,0,0,231.8,766,0,0.0011124,0.000301971,0.000401802,0.0164337,0.00594601,0.000524673,0.00098793,0.00118069,-0.00962608,0.000755157,0.000391846,0.01738,-0.0202063,0.00140194,-0.000104866,-0.00760559
40,6,0,0,0,0,0,0,231.8,254,0,0,0,0,0,0,0,231.8,766,0,6.14207e-06,0.00159897,0.000783272,0.0149078,0.00606045,0.00113502,0.00098793,0.000341454,0.0667442,0.000640716,0.000506287,0.0166934,-0.0202444,0.000944176,0.00195507,-0.00718597
40,7,0,0,0,0,0,0,231.8,254,0,0,0,0,0,0,0,231.8,766,0,0.000692788,0.000988617,0.00131733,0.0173111,0.00457272,0.000982437,0.00102608,0.00152401,0.0126517,0.00117477,0.00046814,0.0108569,-0.0191,0.00182156,0.00111584,-0.00806335
40,8,0,0,0,0,0,0,231.8,254,0,0,0,0,0,0,0,231.8,766,0,-0.00022274,0.0012175,0.00108845,0.0174636,0.00461086,0.000410232,0.00121681,-4.00161e-05,-0.0487267,0.00231918,-0.000104065,0.0134127,-0.0207785,0.00132565,-2.8572e-05,-0.00760559
40,9,0,0,0,0,0,0,231.8,254,0,0,0,0,0,0,0,231.8,766,0,0.00149387,0.00148453,0.000783272,0.0159378,0.00525936,0.00136391,0.000301285,-4.00161e-05,0.0748695,0.0015181,8.66698e-05,0.0149386,-0.0200156,0.000944176,0.00119213,-0.00787262
41,0,0,0,0,0,0,0,231.8,254,0,0,0,0,0,0,0,231.8,766,0,0.00015873,0.000454559,0.000821419,0.0162048,0.00327572,-0.000123825,0.000644607,7.44248e-05,0.00498421,0.000945892,0.000239258,0.0129931,-0.020397,0.000486412,-6.6719e-05,-0.0081778
41,1,0,0,0,0,0,0,231.8,254,0,0,0,0,0,0,0,231.8,766,0,0.000387612,0.000797882,0.000516243,0.0157852,0.00590786,0.00056282,0.000148697,0.000303307,-0.045942,-7.78213e-06,0.000315552,0.0149768,-0.0219229,0.000410118,0.00210766,-0.00970367
41,2,0,0,0,0,0,0,231.8,254,0,0,0,0,0,0,0,231.8,766,0,0.0011124,0.000721588,0.000706978,0.0164337,0.00663265,0.00117317,0.00209419,0.00076107,0.0839484,0.000488129,0.000162964,0.0200122,-0.018299,0.00140194,0.00069622,-0.00878815
41,3,0,0,0,0,0,0,231.8,254,0,0,0,0,0,0,0,231.8,766,0,0.000425759,0.000874176,0.00150806,0.0155563,0.00152096,0.00109688,0.000415726,0.000303307,0.014521,0.00155624,-0.000142212,0.0203555,-0.0198248,0.000371971,0.00058178,-0.00642303
41,4,0,0,0,0,0,0,231.8,254,0,0,0,0,0,0,0,231.8,766,0,0.00103611,0.000836029,0.00116474,0.0160522,0.00224575,0.000143204,-3.89107e-06,0.000532188,-0.0483834,0.00117477,0.000544433,0.0150531,-0.0202444,-0.000200233,0.00130657,-0.00951294
41,5,0,0,0,0,0,0,231.8,254,0,0,0,0,0,0,0,231.8,766,0,0.000769082,0.000340118,0.000668831,0.0169677,0.00258907,-4.75312e-05,0.000530167,0.000150719,0.0865806,0.000755157,0.000773315,0.0148623,-0.0205878,0.00102047,-0.000219307,-0.0081015
41,6,0,0,0,0,0,0,231.8,254,0,0,0,0,0,0,0,231.8,766,0,-0.000451622,0.00095047,0.000249214,0.0159759,0.00590786,0.000639114,0.000186844,0.000341454,0.0187553,0.00132736,4.85228e-05,0.0146334,-0.0210455,0.000371971,0.00103954,-0.00791077
41,7,0,0,0,0,0,0,231.8,254,0,0,0,0,0,0,0,231.8,766,0,0.000616494,0.000225677,0.000897713,0.0161285,0.00834927,0.00109688,0.000759048,-0.00049778,-0.0732171,0.000945892,0.00046814,0.0101702,-0.0209692,0.000829735,0.000162163,-0.00882629
41,8,0,0,0,0,0,0,231.8,254,0,0,0,0,0,0,0,231.8,766,0,0.000273171,-0.000537262,0.00139362,0.0167389,0.00972256,0.00113502,0.000835342,0.00026516,-0.0166451,0.000793304,0.00096405,0.0113147,-0.0205878,0.00159267,0.00123028,-0.00905518
41,9,0,0,0,0,0,0,231.8,254,0,0,0,0,0,0,0,231.8,766,0,0.000692788,0.000683441,5.84793e-05,0.0153656,0.0124691,0.000867996,0.000224991,3.62778e-05,0.0261558,0.000678863,0.000887756,0.0151294,-0.0197485,0.00113491,0.00142101,-0.00806335
42,0,0,0,0,0,0,0,231.8,254,0,0,0,0,0,0,0,231.8,766,0,4.4289e-05,3.49423e-05,0.000325508,0.01548,0.0118969,6.69097e-05,0.000568314,0.000722923,0.180918,0.000640716,-0.000104065,0.0181811,-0.0200156,0.000219383,0.000505486,-0.00813965
42,1,0,0,0,0,0,0,231.8,254,0,0,0,0,0,0,0,231.8,766,0,-0.000947532,0.000492706,0.000821419,0.0163574,0.0127362,0.000791702,-4.2038e-05,-0.000307045,0.182215,0.00117477,0.000391846,0.0184481,-0.0205496,0.00113491,0.00130657,-0.00825409
42,2,0,0,0,0,0,0,231.8,254,0,0,0,0,0,0,0,231.8,766,0,0.00015873,0.000149383,0.00017292,0.0147934,0.0138424,0.000257645,0.000873489,-0.000230751,0.146052,0.000984039,0.000239258,0.0142901,-0.0202826,0.000867882,-2.8572e-05,-0.00901703
42,3,0,0,0,0,0,0,231.8,254,0,0,0,0,0,0,0,231.8,766,0,8.2436e-05,-0.000537262,0.00055439,0.0163574,0.011401,-0.0010775,0.000263138,-0.000268898,0.0311149,0.000984039,-0.00101959,0.00929287,-0.020397,-0.00126835,0.00058178,-0.00878815
42,4,0,0,0,0,0,0,231.8,254,0,0,0,0,0,0,0,231.8,766,0,-0.000375328,0.000530853,-0.00020855,0.0161666,0.0115536,0.000906143,0.000377579,-0.000612221,-0.133222,0.000488129,0.00123108,0.0107425,-0.0205878,0.000906029,-6.6719e-05,-0.00913147
42,5,0,0,0,0,0,0,231.8,254,0,0,0,0,0,0,0,231.8,766,0,0.000463906,-0.000232087,-5.59617e-05,0.0161285,0.012698,0.00102058,0.000949783,-0.000230751,-0.0297677,-0.000198517,-0.00128662,0.0152438,-0.0197867,0.000562706,-2.8572e-05,-0.00920776
42,6,0,0,0,0,0,0,231.8,254,0,0,0,0,0,0,0,231.8,766,0,-0.000489769,-3.20468e-06,-0.000284843,0.0155944,0.0128506,0.000753555,3.42559e-05,-0.000154457,0.0366462,0.00167068,-0.000409241,0.0192492,-0.020397,0.000600853,0.00153545,-0.00714783
42,7,0,0,0,0,0,0,231.8,254,0,0,0,0,0,0,0,231.8,766,0,0.0005402,0.000301971,0.000439949,0.0158233,0.00960812,0.000829849,0.000682754,-7.81631e-05,-0.105222,0.00071701,0.000506287,0.0178378,-0.02116,0.000867882,0.000848808,-0.00951294
42,8,0,0,0,0,0,0,231.8,254,0,0,0,0,0,0,0,231.8,766,0,0.000616494,0.000912323,0.000516243,0.0163955,0.0110958,0.000639114,0.00060646,7.44248e-05,-0.021795,0.00071701,0.00134552,0.0163882,-0.0200156,0.00182156,-0.000677071,-0.00916962
42,9,0,0,0,0,0,0,231.8,254,0,0,0,0,0,0,0,231.8,766,0,0.000692788,0.00125565,0.000287361,0.0161285,0.0120877,0.000715408,0.000644607,0.000608482,0.0546897,0.000869598,0.000620727,0.0158923,-0.0200156,0.00166897,0.00176434,-0.00913147
43,0,0,0,0,0,0,0,231.8,254,0,0,0,0,0,0,0,231.8,766,0,0.00107426,0.000645294,0.00112659,0.0160141,0.00831112,0.00117317,0.00125496,0.00026516,-0.0939309,0.00125107,0.00126923,0.0162738,-0.0203589,0.00136379,0.00107769,-0.00787262
43,1,0,0,0,0,0,0,231.8,254,0,0,0,0,0,0,0,231.8,766,0,-0.000337181,-0.000460968,0.00116474,0.0162811,0.00712856,0.000486526,0.000759048,-4.00161e-05,-0.0693261,0.000793304,-2.77711e-05,0.0130313,-0.0208929,0.00105862,0.000352898,-0.00875
43,2,0,0,0,0,0,0,231.8,254,0,0,0,0,0,0,0,231.8,766,0,0.000883522,-0.000575409,0.000363655,0.0159378,0.00655636,0.00056282,0.000186844,0.000150719,-0.0363671,0.000106659,0.00115479,0.0107043,-0.0209692,0.000944176,0.00126843,-0.00962738
43,3,0,0,0,0,0,0,231.8,254,0,0,0,0,0,0,0,231.8,766,0,0.000654641,0.000454559,0.00177509,0.0171203,0.00701412,0.00113502,0.00098793,-7.81631e-05,0.0390876,0.0002211,0.00134552,0.0120776,-0.0191763,0.0012875,0.00058178,-0.00981812
43,4,0,0,0,0,0,0,231.8,254,0,0,0,0,0,0,0,231.8,766,0,8.2436e-05,-0.000155793,0.000630684,0.0156326,0.00888332,0.00117317,0.000835342,-0.000154457,-0.0110757,0.000869598,8.66698e-05,0.0111621,-0.0209692,0.00136379,0.0010014,-0.00825409
43,5,0,0,0,0,0,0,231.8,254,0,0,0,0,0,0,0,231.8,766,0,0.000425759,7.30893e-05,-0.000399284,0.0157089,0.00411495,0.000219498,0.000797195,-0.000307045,-0.0612389,-8.40761e-05,-0.000218506,0.0106662,-0.0211218,0.000677147,0.000238457,-0.00840668
43,6,0,0,0,0,0,0,231.8,254,0,0,0,0,0,0,0,231.8,766,0,-0.000299034,0.000225677,0.00127918,0.0160522,0.00140652,0.000486526,0.000530167,0.000455895,0.0582755,0.000411835,0.00058258,0.0139087,-0.0211218,0.000181236,0.00111584,-0.0093222
43,7,0,0,0,0,0,0,231.8,254,0,0,0,0,0,0,0,231.8,766,0,0.000425759,7.30893e-05,5.84793e-05,0.0156326,0.00117764,-8.56782e-05,-0.000194626,3.62778e-05,-0.00283592,0.000182953,0.000506287,0.0141757,-0.0202826,0.00113491,0.00149731,-0.00806335
43,8,0,0,0,0,0,0,231.8,254,0,0,0,0,0,0,0,231.8,766,0,0.000730935,-0.000270233,0.000325508,0.0154419,0.000719872,-0.00031456,0.00060646,-0.000955543,-0.0499093,-0.00115219,0.000201111,0.015549,-0.0208929,0.00102047,0.000391045,-0.00955109
43,9,0,0,0,0,0,0,231.8,254,0,0,0,0,0,0,0,231.8,766,0,-0.000871238,-0.000232087,0.000478096,0.015213,-0.000844154,0.000372085,3.42559e-05,-0.000307045,0.078379,-0.000122223,-6.59181e-05,0.0140612,-0.021427,-8.57925e-05,0.000505486,-0.00993256
44,0,0,0,0,0,0,0,231.8,254,0,0,0,0,0,0,0,231.8,766,0,-0.000375328,3.49423e-05,0.00124104,0.0164718,-0.000996742,0.00094429,0.000263138,-0.00118443,0.0105537,0.000602569,0.00153625,0.0154727,-0.0203207,0.00102047,0.00058178,-0.0104285
44,1,0,0,0,0,0,0,231.8,254,0,0,0,0,0,0,0,231.8,766,0,4.4289e-05,0.000340118,-1.78147e-05,0.0160522,-0.00252262,0.00121132,0.00133125,0.000684776,-0.0472771,0.000259247,0.000277405,0.0179904,-0.0206259,0.000982323,-0.000295601,-0.00966553
44,2,0,0,0,0,0,0,231.8,254,0,0,0,0,0,0,0,231.8,766,0,0.000425759,0.000530853,9.66262e-05,0.0165481,-0.00225559,-0.000276413,0.00011055,0.00026516,0.0866187,-0.000236664,0.00107849,0.0183337,-0.0220374,0.00136379,0.00145916,-0.00955109
44,3,0,0,0,0,0,0,231.8,254,0,0,0,0,0,0,0,231.8,766,0,0.00160831,0.000225677,0.0010503,0.0163574,-0.00111118,0.00056282,0.00167458,0.000684776,0.0223411,0.000869598,0.00107849,0.0154345,-0.0199774,0.00140194,0.000734367,-0.00844482
44,4,0,0,0,0,0,0,231.8,254,0,0,0,0,0,0,0,231.8,766,0,0.000845375,0.00137009,0.00116474,0.0167007,-0.00160709,0.000257645,0.000911636,0.000989952,-0.0673425,0.00102219,0.000391846,0.00597408,-0.0200156,-8.57925e-05,0.000734367,-0.00867371
44,5,0,0,0,0,0,0,231.8,254,0,0,0,0,0,0,0,231.8,766,0,0.0005402,0.000454559,0.000516243,0.0160522,-0.00214115,-0.000467148,0.000759048,-0.000230751,-0.0110757,0.00113663,0.00046814,0.00391415,-0.0210837,0.000562706,0.000619926,-0.00859741
44,6,0,0,0,0,0,0,231.8,254,0,0,0,0,0,0,0,231.8,766,0,6.14207e-06,0.000645294,0.000974007,0.0163192,-0.00149265,0.00094429,0.000568314,0.000379601,0.0165809,0.00106033,0.000544433,0.011925,-0.0195578,0.000333824,0.000886955,-0.0081015
44,7,0,0,0,0,0,0,231.8,254,0,0,0,0,0,0,0,231.8,766,0,0.000273171,0.000874176,0.000211067,0.0160141,0.000414696,0.000219498,0.00106422,0.00026516,0.0731147,-0.000427399,-0.000599976,0.0151675,-0.0215033,0.000906029,0.000467339,-0.010047
44,8,0,0,0,0,0,0,231.8,254,0,0,0,0,0,0,0,231.8,766,0,0.00168461,0.000797882,0.00120289,0.016777,0.00125393,0.000105057,0.0019416,0.000989952,-0.0467431,0.00102219,0.00107849,0.0108569,-0.0195197,0.000944176,0.00126843,-0.00760559
44,9,0,0,0,0,0,0,231.8,254,0,0,0,0,0,0,0,231.8,766,0,0.00107426,0.00102676,0.000706978,0.0167007,-0.000729713,0.00094429,0.000759048,0.000989952,0.0219215,0.000335541,0.00130737,0.0119632,-0.0195959,0.0012875,0.00206951,-0.00863556
45,0,0,0,0,0,0,0,231.8,254,0,0,0,0,0,0,0,231.8,766,0,0.0005402,0.000454559,0.000745125,0.0159378,0.00270351,0.00102058,0.000720901,0.00133327,0.0721992,0.00113663,0.000887756,0.0119632,-0.0202826,0.000982323,0.00111584,-0.00867371
45,1,0,0,0,0,0,0,231.8,254,0,0,0,0,0,0,0,231.8,766,0,0.00126499,0.000454559,0.00055439,0.0161285,0.0048016,0.00105873,0.000873489,0.000494041,-0.0437676,0.00106033,0.00058258,0.0132602,-0.0198248,0.000867882,0.00111584,-0.00775818
45,2,0,0,0,0,0,0,231.8,254,0,0,0,0,0,0,0,231.8,766,0,-0.000146446,-0.000766144,-1.78147e-05,0.0162048,0.00159725,0.000600967,0.000148697,-0.000230751,0.0264991,6.85118e-05,-0.000104065,0.0126879,-0.0210455,0.000944176,0.000391045,-0.00951294
45,3,0,0,0,0,0,0,231.8,254,0,0,0,0,0,0,0,231.8,766,0,0.000273171,3.49423e-05,0.00101215,0.0161285,0.000376549,0.000486526,-0.000309067,-7.81631e-05,0.087992,6.85118e-05,0.000620727,0.0159686,-0.0208548,-0.000886879,0.00119213,-0.00871185
45,4,0,0,0,0,0,0,231.8,254,0,0,0,0,0,0,0,231.8,766,0,0.000273171,0.000721588,0.000401802,0.0147171,0.00152096,0.00056282,0.000568314,-0.000764809,-0.0465524,-0.000198517,0.000391846,0.0180285,-0.0202063,0.00105862,0.000886955,-0.00852112
45,5,0,0,0,0,0,0,231.8,254,0,0,0,0,0,0,0,231.8,766,0,0.0011124,0.000530853,0.000821419,0.0171966,0.000643578,0.000639114,0.00133125,0.000951805,0.0265754,0.00174698,0.00111664,0.0146334,-0.0200919,0.000600853,0.00069622,-0.0100089
45,6,0,0,0,0,0,0,231.8,254,0,0,0,0,0,0,0,231.8,766,0,0.000578347,0.000797882,0.000974007,0.0163574,0.00121578,0.00170723,0.000873489,0.00106625,0.0954688,0.0002211,0.000544433,0.0139468,-0.0198248,0.00182156,0.00264172,-0.00840668
45,7,0,0,0,0,0,0,231.8,254,0,0,0,0,0,0,0,231.8,766,0,0.000769082,0.000645294,0.000706978,0.0163192,0.00300869,0.000982437,0.00060646,0.00076107,-0.0512826,0.0002211,0.0010022,0.0166552,-0.0205115,0.00144009,0.000314751,-0.00871185
45,8,0,0,0,0,0,0,231.8,254,0,0,0,0,0,0,0,231.8,766,0,0.000845375,7.30893e-05,0.000668831,0.0163192,-0.00027195,-4.75312e-05,0.000186844,0.000913658,-0.0327813,0.00113663,0.000735168,0.00986507,-0.0205115,0.00124935,0.0010014,-0.0081778
45,9,0,0,0,0,0,0,231.8,254,0,0,0,0,0,0,0,231.8,766,0,0.000692788,0.00156082,0.000630684,0.0161666,0.00304684,0.000181351,0.000720901,0.000227013,-0.0063073,0.000144806,0.00058258,0.0160449,-0.0201682,0.000829735,0.000925102,-0.00794891
46,0,0,0,0,0,0,0,231.8,254,0,0,0,0,0,0,0,231.8,766,0,0.000769082,-0.000422821,0.000439949,0.0168533,0.00499233,0.000791702,0.000339432,0.000875511,0.0621665,0.000411835,0.000315552,0.0211947,-0.0207785,0.00025753,0.000810661,-0.00867371
46,1,0,0,0,0,0,0,231.8,254,0,0,0,0,0,0,0,231.8,766,0,-0.000566063,0.00125565,0.000821419,0.0160904,0.00495419,0.00113502,0.000911636,3.62778e-05,0.012461,0.00132736,0.00138367,0.0173419,-0.0206259,0.00155453,0.000734367,-0.00772003
46,2,0,0,0,0,0,0,231.8,254,0,0,0,0,0,0,0,231.8,766,0,0.0017609,0.000797882,0.00135548,0.0162811,0.00438198,0.000982437,0.00125496,0.00076107,-0.0413644,0.00106033,0.00107849,0.0134127,-0.0200156,0.00170712,0.000963249,-0.0104666
46,3,0,0,0,0,0,0,231.8,254,0,0,0,0,0,0,0,231.8,766,0,0.0011124,0.00110306,0.000706978,0.0172729,0.00148281,2.87627e-05,0.00171272,0.000341454,0.0744498,3.03648e-05,0.000620727,0.0145953,-0.0196722,0.000295677,0.00107769,-0.00787262
46,4,0,0,0,0,0,0,231.8,254,0,0,0,0,0,0,0,231.8,766,0,0.00015873,0.000645294,0.00101215,0.0162811,0.00159725,0.000486526,0.000873489,0.00076107,0.00853188,0.00117477,0.00111664,0.0148623,-0.0201682,0.0012875,0.0010014,-0.00749115
46,5,0,0,0,0,0,0,231.8,254,0,0,0,0,0,0,0,231.8,766,0,0.000578347,0.000607147,0.000974007,0.0170822,0.00449642,0.00121132,0.00175087,0.000722923,-0.0395333,0.00113663,0.000925903,0.0171511,-0.0205496,0.0012875,0.000391045,-0.00749115
46,6,0,0,0,0,0,0,231.8,254,0,0,0,0,0,0,0,231.8,766,0,0.000769082,0.00102676,0.00166065,0.0165481,0.00476345,0.000372085,0.000224991,0.000837364,0.0853217,0.0014418,0.000887756,0.0187152,-0.0201682,0.00132565,0.00237469,-0.00669006
46,7,0,0,0,0,0,0,231.8,254,0,0,0,0,0,0,0,231.8,766,0,0.00168461,0.00137009,0.00093586,0.0165863,0.00632748,0.00094429,0.00011055,0.00144772,0.0163139,0.000297394,0.000811462,0.0137561,-0.020397,0.000410118,0.00069622,-0.00833038
46,8,0,0,0,0,0,0,231.8,254,0,0,0,0,0,0,0,231.8,766,0,0.000845375,-0.000117646,0.0010503,0.0168914,0.0054501,0.00056282,0.000797195,0.000379601,-0.044645,-0.000198517,0.000315552,0.0166171,-0.0205878,0.00178341,0.00176434,-0.00772003
46,9,0,0,0,0,0,0,231.8,254,0,0,0,0,0,0,0,231.8,766,0,0.00168461,0.00167526,0.00127918,0.0176162,0.00518307,0.00102058,0.000759048,0.00125698,0.088259,0.000984039,0.00176514,0.0208895,-0.0201682,0.00105862,0.00069622,-0.0075293
47,0,0,0,0,0,0,0,231.8,254,0,0,0,0,0,0,0,231.8,766,0,0.000769082,0.00148453,0.000706978,0.017044,0.00648006,0.00163094,0.000835342,0.000188866,0.0223029,0.00132736,0.000620727,0.0186007,-0.0212363,0.00144009,0.00107769,-0.00833038
47,1,0,0,0,0,0,0,231.8,254,0,0,0,0,0,0,0,231.8,766,0,-0.000146446,0.000225677,-1.78147e-05,0.0162048,0.00777706,0.000677261,-0.000232773,0.00125698,-0.0699746,0.000449982,0.00058258,0.0131076,-0.0205496,0.00159267,0.0015736,-0.00813965
47,2,0,0,0,0,0,0,231.8,254,0,0,0,0,0,0,0,231.8,766,0,0.000654641,0.000416412,-1.78147e-05,0.0165481,0.00751003,0.000715408,0.000263138,0.00152401,-0.0135934,0.000335541,0.000925903,0.0113528,-0.0211218,0.000715294,0.000619926,-0.00813965
47,3,0,0,0,0,0,0,231.8,254,0,0,0,0,0,0,0,231.8,766,0,0.000196877,0.00102676,0.00146992,0.0159378,0.00632748,0.000486526,0.00060646,0.000570335,0.0145972,0.000144806,0.000391846,0.0118106,-0.0203589,0.00151638,4.77219e-05,-0.0081778
47,4,0,0,0,0,0,0,231.8,254,0,0,0,0,0,0,0,231.8,766,0,8.2436e-05,0.000645294,0.00055439,0.0157089,0.00773891,0.000448379,0.00060646,0.000341454,0.0700629,-4.59291e-05,0.000658874,0.011925,-0.0203589,0.000829735,0.00134472,-0.00821594
47,5,0,0,0,0,0,0,231.8,254,0,0,0,0,0,0,0,231.8,766,0,0.00134129,0.000759735,0.00017292,0.0168151,0.00682339,0.000639114,0.000148697,0.000379601,-0.0518166,0.000945892,0.000849609,0.0130313,-0.0203589,0.00178341,-6.6719e-05,-0.00920776
47,6,0,0,0,0,0,0,231.8,254,0,0,0,0,0,0,0,231.8,766,0,0.000997963,0.000874176,0.00143177,0.0168914,0.007243,0.00159279,0.000835342,0.000608482,0.0197089,0.000869598,0.000658874,0.0095599,-0.018833,0.0018597,0.000848808,-0.00749115
47,7,0,0,0,0,0,0,231.8,254,0,0,0,0,0,0,0,231.8,766,0,0.0005402,0.0011412,0.000478096,0.0168914,0.00705227,0.00166908,0.000530167,0.000494041,0.0674308,0.000984039,0.00142181,0.00898769,-0.0210837,0.001936,0.00111584,-0.00760559
47,8,0,0,0,0,0,0,231.8,254,0,0,0,0,0,0,0,231.8,766,0,0.00130314,0.00198044,0.00093586,0.01548,0.00514492,0.00132576,0.000453873,0.00125698,-0.0507485,0.00071701,0.00046814,0.0101321,-0.0196722,0.000677147,0.00210766,-0.00787262
47,9,0,0,0,0,0,0,231.8,254,0,0,0,0,0,0,0,231.8,766,0,6.14207e-06,0.000301971,-9.41086e-05,0.0165863,0.00514492,0.000791702,0.00106422,0.000799217,0.0223029,0.00109848,0.000620727,0.0121539,-0.0209311,0.000562706,0.00119213,-0.00840668
48,0,0,0,0,0,0,0,231.8,254,0,0,0,0,0,0,0,231.8,766,0,0.000921669,0.000149383,-0.000132256,0.0164337,0.00621304,0.00105873,0.000797195,0.000913658,0.082804,0.000411835,-2.77711e-05,0.0152438,-0.0206641,0.000982323,0.000238457,-0.00741486
48,1,0,0,0,0,0,0,231.8,254,0,0,0,0,0,0,0,231.8,766,0,0.000311318,0.000683441,0.000821419,0.0157089,0.00495419,0.000524673,0.00102608,-1.86916e-06,-0.052694,0.000411835,-0.000752564,0.0171511,-0.0211981,0.000639,0.000314751,-0.00844482
48,2,0,0,0,0,0,0,231.8,254,0,0,0,0,0,0,0,231.8,766,0,0.000807228,0.000988617,0.00124104,0.0168914,0.00644192,0.00094429,0.000415726,-0.000268898,0.0207008,0.000526275,0.00058258,0.0169223,-0.0210074,0.00140194,0.000886955,-0.00882629
48,3,0,0,0,0,0,0,231.8,254,0,0,0,0,0,0,0,231.8,766,0,0.000997963,0.000111236,0.00124104,0.01651,0.00682339,0.00121132,0.0013694,0.000494041,0.0899757,0.000831451,-0.0002948,0.0149386,-0.0199774,0.000982323,0.000848808,-0.010047
48,4,0,0,0,0,0,0,231.8,254,0,0,0,0,0,0,0,231.8,766,0,-0.000260887,0.000912323,0.000706978,0.0166626,0.00617489,0.00094429,0.00060646,0.0016003,-0.0569665,-0.000312958,0.000735168,0.0149386,-0.0193671,0.00140194,0.00145916,-0.00806335
48,5,0,0,0,0,0,0,231.8,254,0,0,0,0,0,0,0,231.8,766,0,0.000425759,0.000340118,0.000630684,0.01651,0.00567898,0.000600967,0.000911636,0.000684776,-0.0386559,-0.000274811,4.85228e-05,0.0105517,-0.0203207,0.00113491,0.00191692,-0.00943665
48,6,0,0,0,0,0,0,231.8,254,0,0,0,0,0,0,0,231.8,766,0,0.000349465,0.000797882,0.00055439,0.0158996,0.00400051,0.000600967,0.000568314,-0.000192604,-0.00977867,0.000907745,1.03759e-05,0.017113,-0.0198248,0.000219383,0.000238457,-0.00897888
48,7,0,0,0,0,0,0,231.8,254,0,0,0,0,0,0,0,231.8,766,0,0.000769082,0.00144638,0.00055439,0.0170822,0.00758633,0.000829849,0.00049202,0.000837364,0.0611366,0.00132736,0.000124817,0.0236361,-0.0205115,0.00132565,0.00130657,-0.00756744
48,8,0,0,0,0,0,0,231.8,254,0,0,0,0,0,0,0,231.8,766,0,0.0011887,0.000301971,0.00146992,0.0165863,0.00838741,0.000639114,0.00163643,0.000303307,0.0104392,0.00170883,0.00153625,0.0216143,-0.0195578,0.000715294,0.00123028,-0.00737671
48,9,0,0,0,0,0,0,231.8,254,0,0,0,0,0,0,0,231.8,766,0,0.000387612,0.00125565,0.000592537,0.0163574,0.00735744,0.00140205,0.00106422,0.000188866,-0.0469338,0.00159439,-2.77711e-05,0.0183337,-0.0199011,0.000524559,0.000543633,-0.00710968
49,0,0,0,0,0,0,0,231.8,254,0,0,0,0,0,0,0,231.8,766,0,0.00126499,-0.000384674,-0.000437431,0.01651,0.00594601,0.000448379,0.00049202,0.000608482,0.0702537,0.00155624,-0.0015918,0.021004,-0.0211218,0.000982323,-0.000219307,-0.007453
49,1,0,0,0,0,0,0,231.8,254,0,0,0,0,0,0,0,231.8,766,0,-0.00071865,-7.94986e-05,-0.00070446,0.0152511,0.00552639,0.000333939,-0.000347214,0.000417748,0.00563271,-4.59291e-05,-0.000104065,0.0197451,-0.0205115,2.86484e-05,0.000276604,-0.00813965
49,2,0,0,0,0,0,0,231.8,254,0,0,0,0,0,0,0,231.8,766,0,0.000463906,0.000149383,-5.59617e-05,0.0152893,0.0040768,0.000486526,0.000263138,0.00026516,-0.0440728,6.85118e-05,-0.000714417,0.0140231,-0.0213507,0.000906029,0.00119213,-0.00833038
49,3,0,0,0,0,0,0,231.8,254,0,0,0,0,0,0,0,231.8,766,0,0.000235024,-0.000613556,-0.000551872,0.0154419,0.00438198,0.000677261,0.000682754,0.000379601,0.0825751,0.00071701,0.000315552,0.011925,-0.0210455,-0.00023838,-0.00124928,-0.00855927
49,4,0,0,0,0,0,0,231.8,254,0,0,0,0,0,0,0,231.8,766,0,6.14207e-06,0.000225677,0.000134773,0.0155563,0.00434383,0.00128761,0.000263138,0.000417748,0.0142921,0.000907745,-0.000714417,0.014786,-0.0199011,0.00102047,0.000391045,-0.00707153
49,5,0,0,0,0,0,0,231.8,254,0,0,0,0,0,0,0,231.8,766,0,0.000425759,0.000225677,0.000630684,0.0161285,0.00422939,-0.000200119,0.000301285,0.000303307,-0.0483071,0.0002211,0.000315552,0.0150912,-0.0212363,2.86484e-05,0.000925102,-0.0100089
49,6,0,0,0,0,0,0,231.8,254,0,0,0,0,0,0,0,231.8,766,0,0.000120583,3.49423e-05,-0.00100964,0.0152893,0.00129208,-4.75312e-05,-8.0185e-05,-0.000154457,0.0859702,0.0002211,0.000239258,0.00914028,-0.0199774,0.000600853,0.000391045,-0.00882629
49,7,0,0,0,0,0,0,231.8,254,0,0,0,0,0,0,0,231.8,766,0,0.000311318,0.00018753,-0.00032299,0.0150985,0.00274166,0.000677261,0.000453873,0.000379601,0.0210441,-0.000274811,-0.00178253,0.0104373,-0.021427,-0.000200233,9.57493e-06,-0.00840668
49,8,0,0,0,0,0,0,231.8,254,0,0,0,0,0,0,0,231.8,766,0,-0.000604209,0.000378265,0.000821419,0.0163192,0.00464901,-0.000352707,0.00133125,0.000722923,-0.072683,0.00109848,0.00058258,0.011925,-0.0208929,0.000410118,0.000619926,-0.00806335
49,9,0,0,0,0,0,0,231.8,254,0,0,0,0,0,0,0,231.8,766,0,8.2436e-05,0.000569,0.000478096,0.0159378,0.00316128,0.000181351,0.000339432,0.000188866,-0.0160729,0.000526275,-0.000447388,0.014519,-0.0208929,0.000410118,0.00184063,-0.00760559
50,0,0,0,0,0,0,0,231.8,254,0,0,0,0,0,0,0,231.8,766,0,0.000807228,0.00110306,0.00143177,0.0162811,0.00277981,0.00109688,0.000759048,-0.000574074,0.0154365,0.000755157,0.000658874,0.0152438,-0.0201682,0.000333824,0.000925102,-0.00905518
50,1,0,0,0,0,0,0,231.8,254,0,0,0,0,0,0,0,231.8,766,0,-0.000413475,0.000301971,0.000706978,0.0173492,0.00186428,0.00155464,0.000759048,0.000303307,0.073191,0.0021666,-0.000142212,0.0131076,-0.0199393,0.00136379,0.00138287,-0.00909332
50,2,0,0,0,0,0,0,231.8,254,0,0,0,0,0,0,0,231.8,766,0,0.00107426,0.00106491,0.00093586,0.0171203,0.000262108,0.000791702,0.000949783,0.000989952,-0.0545632,0.00113663,0.000620727,0.0120395,-0.0199393,0.00113491,0.00164989,-0.00775818
50,3,0,0,0,0,0,0,231.8,254,0,0,0,0,0,0,0,231.8,766,0,0.000349465,0.000721588,0.000592537,0.0161666,-0.000577125,0.00056282,0.00182716,0.000608482,0.0150169,0.0021666,0.0010022,0.0121157,-0.0193289,0.00163082,0.000124016,-0.00775818
50,4,0,0,0,0,0,0,231.8,254,0,0,0,0,0,0,0,231.8,766,0,-0.000108299,0.000492706,-0.000361137,0.0155563,0.000796166,0.00105873,0.000301285,0.000150719,0.0675834,0.000449982,-0.00220215,0.0128024,-0.0204352,0.000715294,0.00058178,-0.00768188
50,5,0,0,0,0,0,0,231.8,254,0,0,0,0,0,0,0,231.8,766,0,0.000273171,0.000416412,9.66262e-05,0.0156707,0.000338402,-0.000390854,0.00117867,7.44248e-05,-0.0513589,0.0002211,0.000124817,0.0149768,-0.0203207,0.000448265,0.00138287,-0.00916962
50,6,0,0,0,0,0,0,231.8,254,0,0,0,0,0,0,0,231.8,766,0,-0.000642356,0.00018753,0.00150806,0.0164337,0.00281796,0.000753555,0.000911636,0.000188866,0.019976,0.000602569,8.66698e-05,0.0138324,-0.0210837,0.000753441,0.0015736,-0.00794891
50,7,0,0,0,0,0,0,231.8,254,0,0,0,0,0,0,0,231.8,766,0,0.000616494,0.000492706,-0.000437431,0.0150604,0.00216946,0.00128761,-0.00065239,0.000112572,0.084101,0.000144806,0.000315552,0.0137942,-0.0210074,0.000143089,8.58689e-05,-0.0081015
50,8,0,0,0,0,0,0,231.8,254,0,0,0,0,0,0,0,231.8,766,0,-0.000260887,-0.000651703,0.000478096,0.0161285,0.00140652,0.000867996,0.00140755,0.000188866,-0.0539147,-8.40761e-05,0.000315552,0.0142138,-0.0206259,0.000639,0.000391045,-0.00958923
50,9,0,0,0,0,0,0,231.8,254,0,0,0,0,0,0,0,231.8,766,0,8.2436e-05,0.000492706,0.00108845,0.0164718,0.00274166,0.00163094,0.000797195,0.000646629,0.0202048,0.000602569,0.000925903,0.0148623,-0.0209692,0.00170712,0.000886955,-0.00928406
51,0,0,0,0,0,0,0,231.8,254,0,0,0,0,0,0,0,231.8,766,0,0.000807228,0.000759735,0.000287361,0.0162811,0.00453457,0.000791702,0.00213234,-4.00161e-05,0.0913108,0.000831451,0.000544433,0.0163501,-0.0203207,0.000371971,0.00145916,-0.0068808
51,1,0,0,0,0,0,0,231.8,254,0,0,0,0,0,0,0,231.8,766,0,0.000273171,0.000378265,0.00166065,0.0158233,0.00518307,0.000753555,0.00129311,0.000455895,-0.0579583,0.00159439,-6.59181e-05,0.0154345,-0.0207404,0.00124935,0.000848808,-0.00726227
51,2,0,0,0,0,0,0,231.8,254,0,0,0,0,0,0,0,231.8,766,0,0.00122685,0.00140823,0.000478096,0.0159378,0.00365719,0.000333939,0.000568314,0.000570335,-0.0394952,0.00163254,0.00107849,0.0162738,-0.0205496,0.000639,0.000925102,-0.00901703
51,3,0,0,0,0,0,0,231.8,254,0,0,0,0,0,0,0,231.8,766,0,0.00015873,7.30893e-05,0.00131733,0.0152893,0.00201687,0.000639114,0.00125496,0.000112572,-0.00794762,0.000259247,8.66698e-05,0.0193637,-0.0191382,0.00189785,0.00058178,-0.00798706
51,4,0,0,0,0,0,0,231.8,254,0,0,0,0,0,0,0,231.8,766,0,0.000311318,0.000530853,0.000859566,0.0157852,-0.00027195,-4.75312e-05,0.000530167,0.00118069,0.10573,0.000488129,0.000315552,0.0182574,-0.0205878,0.000600853,0.00203136,-0.00985626
51,5,0,0,0,0,0,0,231.8,254,0,0,0,0,0,0,0,231.8,766,0,4.4289e-05,0.00152267,0.000668831,0.016777,-0.000233803,0.00147835,0.00129311,0.000646629,0.202891,0.000411835,0.00184143,0.0162738,-0.0203589,0.00117306,0.00058178,-0.00894073
51,6,0,0,0,0,0,0,231.8,254,0,0,0,0,0,0,0,231.8,766,0,0.00015873,0.000645294,0.000974007,0.0158233,0.000681725,0.0014402,0.00167458,0.0010281,0.160929,0.00163254,-0.000485535,0.0108569,-0.0191382,0.00189785,0.0010014,-0.0081015
51,7,0,0,0,0,0,0,231.8,254,0,0,0,0,0,0,0,231.8,766,0,0.0011124,0.000607147,0.000668831,0.0161285,-0.00191227,0.000715408,0.00110237,0.000112572,0.111338,0.000411835,0.00161255,0.00582149,-0.0204733,0.000410118,0.00237469,-0.00714783
