Devices
1000
,,North - Force,,,North - Moment,,,North - CoP,,,South - Force,,,South - Moment,,,South - CoP,,,EMG - Voltage,,,,,,,,,,,,,,,,
Frame,Sub Frame,Fx,Fy,Fz,Mx,My,Mz,Cx,Cy,Cz,Fx,Fy,Fz,Mx,My,Mz,Cx,Cy,Cz,1,2,3,TA,5,Sol,7,8,VL,RF,BF,GlutMed,GlutMax,14,MedGast,16
,,N,N,N,N.mm,N.mm,N.mm,mm,mm,mm,N,N,N,N.mm,N.mm,N.mm,mm,mm,mm,V,V,V,V,V,V,V,V,V,V,V,V,V,V,V,V
1,0,0,0,0,0,0,0,231.8,254,0,0,0,0,0,0,0,231.8,766,0,0.000196877,0.000454559,0.000401802,0.0157089,0.00564083,0.000639114,0.000797195,-0.000154457,0.027262,0.000869598,-0.000485535,0.0170749,-0.0211981,0.000639,0.00020031,-0.00825409
1,1,0,0,0,0,0,0,231.8,254,0,0,0,0,0,0,0,231.8,766,0,0.000921669,0.000492706,2.03323e-05,0.0173111,0.00850185,0.000867996,0.00011055,0.000532188,-0.071386,0.00071701,0.000353699,0.0133364,-0.0207404,0.000982323,0.00199322,-0.00787262
1,2,0,0,0,0,0,0,231.8,254,0,0,0,0,0,0,0,231.8,766,0,0.00141758,0.000378265,0.000745125,0.0163955,0.00670895,0.00094429,0.00152199,-7.81631e-05,0.0282157,0.00170883,0.00107849,0.0124591,-0.0199011,0.00159267,0.00058178,-0.00871185
1,3,0,0,0,0,0,0,231.8,254,0,0,0,0,0,0,0,231.8,766,0,0.000120583,0.000797882,0.000211067,0.0155563,0.00178799,-0.000276413,0.000148697,0.000341454,0.0333656,3.03648e-05,-0.000561829,0.0177233,-0.0218848,-0.000810585,0.00138287,-0.00806335
1,4,0,0,0,0,0,0,231.8,254,0,0,0,0,0,0,0,231.8,766,0,0.00015873,0.000683441,0.000630684,0.0163955,-0.00126377,0.000867996,0.00106422,-4.00161e-05,-0.0591027,0.00109848,0.000162964,0.0165408,-0.0200919,0.00144009,0.00069622,-0.00844482
1,5,0,0,0,0,0,0,231.8,254,0,0,0,0,0,0,0,231.8,766,0,0.000387612,-0.000346527,0.000897713,0.01651,0.000796166,0.00121132,0.00133125,0.000989952,0.0434364,6.85118e-05,0.000391846,0.0132602,-0.0208548,0.0012112,0.000505486,-0.0081778
1,6,0,0,0,0,0,0,231.8,254,0,0,0,0,0,0,0,231.8,766,0,0.0005402,0.000645294,-0.000971489,0.0155563,-0.00271336,-0.000123825,0.000453873,0.000494041,0.0526679,-0.000847016,-0.000142212,0.0166171,-0.0218466,0.000143089,0.000772514,-0.0108862
1,7,0,0,0,0,0,0,231.8,254,0,0,0,0,0,0,0,231.8,766,0,0.000807228,0.000797882,0.00055439,0.0166626,-0.00103489,0.000829849,0.00117867,0.00114254,-0.0579202,0.000793304,0.0010022,0.0194781,-0.0209692,0.00124935,0.00123028,-0.00855927
1,8,0,0,0,0,0,0,231.8,254,0,0,0,0,0,0,0,231.8,766,0,0.0011124,0.000836029,0.000783272,0.0150604,0.00255093,0.000867996,3.42559e-05,0.000112572,0.0498832,0.000678863,-6.59181e-05,0.0178759,-0.0203589,0.000486412,0.000925102,-0.0093222
1,9,0,0,0,0,0,0,231.8,254,0,0,0,0,0,0,0,231.8,766,0,0.00153202,0.00102676,0.000363655,0.0169296,0.00533566,0.00102058,0.00171272,0.000646629,0.0645316,0.00182327,0.0022229,0.0140612,-0.0200537,0.000906029,0.00180248,-0.00867371
2,0,0,0,0,0,0,0,231.8,254,0,0,0,0,0,0,0,231.8,766,0,0.00107426,0.000416412,0.000325508,0.0163192,0.011134,0.00128761,0.000797195,0.000646629,-0.0646722,0.00147995,0.000620727,0.0112002,-0.0213889,0.000829735,0.000925102,-0.00821594
2,1,0,0,0,0,0,0,231.8,254,0,0,0,0,0,0,0,231.8,766,0,0.000425759,0.000874176,0.00108845,0.0158996,0.0131176,0.000333939,-0.000156479,0.00106625,-0.0195061,0.000488129,0.000239258,0.0144427,-0.0221899,0.00136379,0.000886955,-0.010314
2,2,0,0,0,0,0,0,231.8,254,0,0,0,0,0,0,0,231.8,766,0,0.000616494,0.000378265,0.000287361,0.0157089,0.0102566,0.00094429,0.00098793,0.00076107,-0.000890426,0.00125107,1.03759e-05,0.0206225,-0.0211218,0.000600853,0.00145916,-0.00821594
2,3,0,0,0,0,0,0,231.8,254,0,0,0,0,0,0,0,231.8,766,0,0.000235024,0.00159897,0.00181324,0.0161666,0.00613674,0.000867996,0.00060646,0.000303307,0.0693382,0.000984039,0.000620727,0.0214618,-0.0207785,0.000867882,0.00058178,-0.00852112
2,4,0,0,0,0,0,0,231.8,254,0,0,0,0,0,0,0,231.8,766,0,0.000959816,0.00095047,0.000401802,0.0163574,0.00754818,0.000181351,0.000911636,0.000875511,-0.0151955,0.00125107,0.000391846,0.0186007,-0.0199393,0.00166897,0.00187878,-0.00813965
2,5,0,0,0,0,0,0,231.8,254,0,0,0,0,0,0,0,231.8,766,0,0.000120583,0.000301971,0.00093586,0.0160141,0.00663265,0.000410232,0.000224991,0.000608482,-0.0153863,0.000373688,-0.000104065,0.0136416,-0.0219992,-0.000276527,-2.8572e-05,-0.00798706
2,6,0,0,0,0,0,0,231.8,254,0,0,0,0,0,0,0,231.8,766,0,0.000463906,-3.20468e-06,0.000401802,0.0155944,0.007243,0.000372085,-8.0185e-05,-0.000192604,0.0767768,0.000602569,0.000925903,0.0121539,-0.0208548,0.000791588,-0.000753365,-0.00875
2,7,0,0,0,0,0,0,231.8,254,0,0,0,0,0,0,0,231.8,766,0,0.000578347,0.000378265,0.00124104,0.0161666,0.00953182,0.000867996,0.00125496,0.000188866,-0.0157677,0.00121292,0.00115479,0.00612667,-0.0200537,0.00117306,0.00111584,-0.00756744
2,8,0,0,0,0,0,0,231.8,254,0,0,0,0,0,0,0,231.8,766,0,0.000883522,0.00117935,0.000363655,0.0161666,0.00880703,0.00094429,0.000301285,0.000722923,-0.0125634,-8.40761e-05,-0.000485535,0.00807217,-0.0209692,-0.000200233,0.00103954,-0.00741486
2,9,0,0,0,0,0,0,231.8,254,0,0,0,0,0,0,0,231.8,766,0,-0.00022274,0.000530853,-9.41086e-05,0.0156326,0.0079678,6.69097e-05,0.000911636,0.000570335,0.0928367,0.000449982,0.000353699,0.00650814,-0.0206641,0.00105862,0.00210766,-0.00871185
3,0,0,0,0,0,0,0,231.8,254,0,0,0,0,0,0,0,231.8,766,0,0.000959816,0.00095047,-1.78147e-05,0.0154419,0.0079678,0.000715408,0.000568314,-0.000154457,-0.0133645,0.000488129,0.00046814,0.00818661,-0.0205878,0.000219383,-2.8572e-05,-0.00878815
3,1,0,0,0,0,0,0,231.8,254,0,0,0,0,0,0,0,231.8,766,0,0.000807228,0.000759735,0.000821419,0.0162048,0.00648006,0.000982437,0.000530167,0.000799217,-0.015043,0.000640716,0.000620727,0.0108187,-0.0220374,0.00132565,0.00119213,-0.00875
3,2,0,0,0,0,0,0,231.8,254,0,0,0,0,0,0,0,231.8,766,0,0.000463906,0.000836029,0.000630684,0.0163574,0.00594601,0.000295792,0.00060646,-0.00011631,0.0971473,0.000488129,0.000658874,0.00624111,-0.0207022,-0.0012302,0.000772514,-0.00989441
3,3,0,0,0,0,0,0,231.8,254,0,0,0,0,0,0,0,231.8,766,0,0.000273171,0.000454559,0.000401802,0.017044,0.00575527,0.000410232,0.000453873,-0.000345192,-0.00974052,0.000984039,0.000544433,0.00791958,-0.021427,0.00102047,-0.000295601,-0.00741486
3,4,0,0,0,0,0,0,231.8,254,0,0,0,0,0,0,0,231.8,766,0,0.000730935,-0.000575409,0.000668831,0.0162811,0.00815853,0.000639114,0.000148697,-0.000154457,-0.0512063,0.000259247,0.00046814,0.0144809,-0.0209311,0.000486412,-0.000219307,-0.00924591
3,5,0,0,0,0,0,0,231.8,254,0,0,0,0,0,0,0,231.8,766,0,0.00015873,0.000492706,0.000211067,0.0161285,0.00804409,0.000829849,0.0019416,0.00121883,-0.00745171,0.0002211,0.000201111,0.0151675,-0.0203207,0.000448265,0.000619926,-0.00783447
3,6,0,0,0,0,0,0,231.8,254,0,0,0,0,0,0,0,231.8,766,0,0.00122685,0.00140823,0.00116474,0.0167007,0.00773891,0.000829849,0.00117867,0.0010281,0.036074,0.00163254,-0.000256653,0.0131076,-0.0204352,0.00151638,0.000810661,-0.00695709
3,7,0,0,0,0,0,0,231.8,254,0,0,0,0,0,0,0,231.8,766,0,0.00115055,0.000607147,0.00101215,0.0164718,0.0107907,0.000486526,0.00152199,0.000455895,0.0517524,0.0014418,0.00123108,0.0148623,-0.0208167,0.0012875,0.00134472,-0.00695709
3,8,0,0,0,0,0,0,231.8,254,0,0,0,0,0,0,0,231.8,766,0,4.4289e-05,0.000721588,-1.78147e-05,0.0157089,0.00819668,-0.000161972,0.00125496,-0.000154457,-0.0523888,0.000106659,0.000315552,0.0194781,-0.0215796,0.00109676,0.000352898,-0.00833038
3,9,0,0,0,0,0,0,231.8,254,0,0,0,0,0,0,0,231.8,766,0,0.000845375,0.00102676,0.00150806,0.017044,0.00926479,0.000600967,-0.000232773,0.000112572,0.0443519,0.00071701,-0.000218506,0.0192492,-0.0210455,0.000295677,0.000543633,-0.00920776
4,0,0,0,0,0,0,0,231.8,254,0,0,0,0,0,0,0,231.8,766,0,0.000311318,0.00133194,0.000592537,0.0166244,0.0105236,0.00113502,0.00171272,0.000303307,0.0459922,0.00205215,0.00184143,0.0190966,-0.0202063,0.00170712,0.00103954,-0.00833038
4,1,0,0,0,0,0,0,231.8,254,0,0,0,0,0,0,0,231.8,766,0,0.00137943,0.000454559,0.00093586,0.0168151,0.00854,0.00117317,0.00121681,0.00137142,-0.0494134,0.000831451,0.000925903,0.0205462,-0.0199011,0.000639,0.00142101,-0.00882629
4,2,0,0,0,0,0,0,231.8,254,0,0,0,0,0,0,0,231.8,766,0,0.000959816,0.000645294,0.000974007,0.0161666,0.0105999,0.000143204,0.000835342,0.000494041,0.0496925,0.000945892,0.000201111,0.0159686,-0.0207404,0.00124935,0.000848808,-0.00878815
4,3,0,0,0,0,0,0,231.8,254,0,0,0,0,0,0,0,231.8,766,0,0.000769082,-0.000232087,0.000706978,0.0155944,0.00953182,0.000333939,-0.000614243,-0.00049778,0.0591529,0.000755157,-0.000180359,0.0129168,-0.0208167,0.000829735,0.000772514,-0.00821594
4,4,0,0,0,0,0,0,231.8,254,0,0,0,0,0,0,0,231.8,766,0,0.0011124,7.30893e-05,0.000630684,0.0161285,0.00838741,0.000715408,0.00060646,0.000532188,-0.0544488,-0.000465546,0.000735168,0.0136798,-0.0204352,0.000410118,0.0010014,-0.00829224
4,5,0,0,0,0,0,0,231.8,254,0,0,0,0,0,0,0,231.8,766,0,0.00130314,0.000492706,0.00139362,0.0162429,0.00998959,0.000867996,0.00182716,0.000837364,0.0517524,0.000945892,0.00104034,0.0140612,-0.0205496,0.00155453,0.000886955,-0.00741486
4,6,0,0,0,0,0,0,231.8,254,0,0,0,0,0,0,0,231.8,766,0,0.000807228,-3.20468e-06,0.00101215,0.0167389,0.00979885,0.00124947,0.000301285,0.000608482,0.0662864,0.00117477,0.000620727,0.0171511,-0.0201682,0.000410118,0.000810661,-0.0075293
4,7,0,0,0,0,0,0,231.8,254,0,0,0,0,0,0,0,231.8,766,0,0.000273171,0.00095047,0.00112659,0.0152511,0.0102948,0.00102058,0.000186844,-0.000307045,-0.0658547,0.00106033,0.00046814,0.01738,-0.021694,0.000600853,0.000925102,-0.00825409
4,8,0,0,0,0,0,0,231.8,254,0,0,0,0,0,0,0,231.8,766,0,0.000616494,0.0012175,0.00017292,0.0161285,0.00895962,0.000982437,0.000186844,0.00076107,-0.0227868,0.00102219,0.000658874,0.0165789,-0.0209692,0.00140194,0.000658073,-0.00859741
4,9,0,0,0,0,0,0,231.8,254,0,0,0,0,0,0,0,231.8,766,0,0.000883522,0.00167526,0.000439949,0.0156707,0.00594601,0.000486526,0.000873489,0.00026516,-0.00451439,0.00109848,0.000506287,0.0191729,-0.0215033,0.000448265,0.000734367,-0.00783447
5,0,0,0,0,0,0,0,231.8,254,0,0,0,0,0,0,0,231.8,766,0,-0.000375328,7.30893e-05,0.000516243,0.01651,0.00487789,0.000639114,7.24029e-05,0.00026516,0.0667442,0.00163254,-0.0002948,0.0165026,-0.0208167,0.000448265,-0.000448189,-0.00875
5,1,0,0,0,0,0,0,231.8,254,0,0,0,0,0,0,0,231.8,766,0,0.000692788,-0.000384674,-1.78147e-05,0.0165481,0.00701412,0.00094429,0.000644607,0.000570335,-0.0181329,-0.00016037,0.000353699,0.01738,-0.0210455,0.000829735,0.000734367,-0.00653748
5,2,0,0,0,0,0,0,231.8,254,0,0,0,0,0,0,0,231.8,766,0,0.00153202,0.00201858,0.00181324,0.0160904,0.00613674,0.000867996,0.00110237,0.000989952,-0.023092,0.00125107,0.000697021,0.011658,-0.0200537,0.000982323,0.00111584,-0.00875
5,3,0,0,0,0,0,0,231.8,254,0,0,0,0,0,0,0,231.8,766,0,-0.000146446,0.000492706,0.00146992,0.0161285,0.00434383,0.000524673,0.000263138,0.000875511,0.0737251,0.00178513,-0.000561829,0.00723293,-0.0216177,0.000906029,0.000391045,-0.00791077
5,4,0,0,0,0,0,0,231.8,254,0,0,0,0,0,0,0,231.8,766,0,0.00115055,0.000263824,0.000287361,0.0164337,0.00491604,0.00094429,-0.000232773,0.00026516,-0.0209557,0.00239548,0.000239258,0.00685146,-0.0209311,0.000753441,0.000352898,-0.00760559
5,5,0,0,0,0,0,0,231.8,254,0,0,0,0,0,0,0,231.8,766,0,0.000769082,0.00133194,0.000668831,0.0161666,0.00354275,0.000639114,7.24029e-05,0.00144772,-0.0199258,0.000869598,0.00130737,0.0115435,-0.0207785,0.000639,0.000848808,-0.00787262
5,6,0,0,0,0,0,0,231.8,254,0,0,0,0,0,0,0,231.8,766,0,4.4289e-05,0.000340118,0.000859566,0.0155563,0.00388607,6.69097e-05,-0.00137718,-0.000345192,0.0878013,0.00132736,-0.00143921,0.00959804,-0.02116,0.000486412,-0.00163074,-0.00787262
5,7,0,0,0,0,0,0,231.8,254,0,0,0,0,0,0,0,231.8,766,0,-0.000108299,0.00110306,0.0010503,0.0158233,0.00560268,0.000333939,0.000682754,0.000951805,-0.0185906,0.000182953,0.000697021,0.00936916,-0.0209311,0.00155453,0.00126843,-0.00871185
5,8,0,0,0,0,0,0,231.8,254,0,0,0,0,0,0,0,231.8,766,0,0.000769082,0.00095047,-0.000780754,0.0158233,0.00525936,0.00117317,0.00060646,-0.00011631,-0.0226342,0.000755157,-0.000943298,0.010094,-0.020397,0.000639,-0.000333748,-0.00852112
5,9,0,0,0,0,0,0,231.8,254,0,0,0,0,0,0,0,231.8,766,0,0.000196877,-0.000460968,0.000516243,0.0152893,0.00785336,0.00105873,0.000720901,0.00118069,0.0930656,0.000678863,-0.000523682,0.0104754,-0.0208167,0.000371971,0.0010014,-0.00859741
6,0,0,0,0,0,0,0,231.8,254,0,0,0,0,0,0,0,231.8,766,0,0.00107426,0.00125565,0.0010503,0.0170059,0.00865444,0.00121132,-3.89107e-06,0.000837364,-0.0150048,0.00113663,0.000773315,0.0124591,-0.0199011,0.00140194,9.57493e-06,-0.00913147
6,1,0,0,0,0,0,0,231.8,254,0,0,0,0,0,0,0,231.8,766,0,0.000463906,0.000874176,0.000897713,0.0164337,0.00930294,0.00128761,0.000797195,-0.000955543,-0.0561272,0.00155624,0.000658874,0.0136798,-0.0199393,0.000829735,0.00161175,-0.00825409
6,2,0,0,0,0,0,0,231.8,254,0,0,0,0,0,0,0,231.8,766,0,0.000349465,0.000721588,-0.000246697,0.0164337,0.00499233,0.00109688,0.000873489,0.000989952,-0.0114571,0.000869598,-0.000218506,0.0139849,-0.0208167,-9.49856e-06,0.000848808,-0.00844482
6,3,0,0,0,0,0,0,231.8,254,0,0,0,0,0,0,0,231.8,766,0,0.000273171,0.00117935,0.00116474,0.0158615,0.00133022,0.000257645,0.000186844,-0.000459633,0.0507224,0.00170883,0.000201111,0.0144809,-0.0208167,0.0012875,0.000162163,-0.0081778
6,4,0,0,0,0,0,0,231.8,254,0,0,0,0,0,0,0,231.8,766,0,0.000692788,0.0011412,0.000325508,0.015747,0.00106319,0.00117317,-0.000461655,0.00194363,0.185839,0.00113663,0.000124817,0.0150531,-0.0210074,0.000143089,0.00210766,-0.00859741
6,5,0,0,0,0,0,0,231.8,254,0,0,0,0,0,0,0,231.8,766,0,0.000616494,0.00133194,0.000630684,0.0160522,-0.00076786,0.000791702,0.00117867,0.000646629,0.162607,0.000945892,0.00134552,0.0191729,-0.0212363,0.0012875,0.000925102,-0.00970367
6,6,0,0,0,0,0,0,231.8,254,0,0,0,0,0,0,0,231.8,766,0,0.000311318,-0.00030838,0.000249214,0.0155182,-0.00160709,0.00109688,0.00133125,-4.00161e-05,0.129877,-7.78213e-06,0.000658874,0.0198596,-0.0201682,0.0012112,0.00069622,-0.00798706
6,7,0,0,0,0,0,0,231.8,254,0,0,0,0,0,0,0,231.8,766,0,0.000769082,0.000492706,0.00108845,0.0168914,-0.00156895,0.00140205,0.000759048,0.00171474,-0.0107705,-8.40761e-05,0.000506287,0.0211184,-0.0206641,0.000982323,0.000619926,-0.00844482
6,8,0,0,0,0,0,0,231.8,254,0,0,0,0,0,0,0,231.8,766,0,0.000120583,-0.00030838,-0.00020855,0.0152893,-0.00263706,0.000181351,0.00106422,7.44248e-05,-0.124181,0.00128921,-0.000981445,0.0213855,-0.0212744,0.00105862,0.000238457,-0.00844482
6,9,0,0,0,0,0,0,231.8,254,0,0,0,0,0,0,0,231.8,766,0,0.00122685,0.00144638,0.00127918,0.0162429,-0.00114933,0.00151649,0.000949783,0.000417748,0.0051368,0.00106033,0.000429993,0.0206607,-0.0208929,0.00113491,0.00161175,-0.00821594
7,0,0,0,0,0,0,0,231.8,254,0,0,0,0,0,0,0,231.8,766,0,0.000997963,0.00171341,0.00116474,0.0170059,0.00300869,0.000372085,0.00133125,0.000951805,0.0111259,0.0014418,0.00107849,0.0216525,-0.0204352,0.000753441,0.00069622,-0.00779633
7,1,0,0,0,0,0,0,231.8,254,0,0,0,0,0,0,0,231.8,766,0,0.000502053,0.00133194,0.00188953,0.0166244,-0.00027195,0.00163094,-8.0185e-05,-0.000421486,-0.105566,0.0020903,-0.0002948,0.0204699,-0.0206259,0.000982323,-0.000829658,-0.00783447
7,2,0,0,0,0,0,0,231.8,254,0,0,0,0,0,0,0,231.8,766,0,0.000273171,0.00106491,0.000821419,0.0168914,0.00216946,0.000715408,0.000949783,0.000608482,0.0107825,0.00106033,0.00096405,0.0236361,-0.0219611,0.000524559,0.000124016,-0.00840668
7,3,0,0,0,0,0,0,231.8,254,0,0,0,0,0,0,0,231.8,766,0,-3.20049e-05,-7.94986e-05,0.00108845,0.0166626,0.00548824,0.00132576,0.00106422,0.000646629,0.028292,0.000945892,0.00115479,0.0226825,-0.0200156,0.00151638,-0.000486336,-0.00913147
7,4,0,0,0,0,0,0,231.8,254,0,0,0,0,0,0,0,231.8,766,0,-0.000337181,0.000836029,0.000363655,0.0162811,0.00117764,0.000333939,0.000339432,0.00137142,-0.103582,0.000602569,-6.59181e-05,0.021538,-0.0217322,2.86484e-05,0.000734367,-0.00737671
7,5,0,0,0,0,0,0,231.8,254,0,0,0,0,0,0,0,231.8,766,0,0.000807228,0.00018753,0.000325508,0.0165863,0.00174984,0.00056282,0.000415726,0.000646629,-0.0518929,0.000793304,0.000315552,0.0230639,-0.0219992,0.00109676,0.000543633,-0.00848297
7,6,0,0,0,0,0,0,231.8,254,0,0,0,0,0,0,0,231.8,766,0,-0.000146446,0.00095047,0.000821419,0.0155182,-4.30678e-05,0.000677261,0.000339432,0.000341454,-0.0283181,0.000564422,0.000315552,0.0200503,-0.0199774,0.000219383,0.000391045,-0.00829224
7,7,0,0,0,0,0,0,231.8,254,0,0,0,0,0,0,0,231.8,766,0,0.000845375,0.000340118,0.000401802,0.0165863,0.00010952,-0.000657883,0.000797195,0.000989952,0.0473655,0.00071701,0.00115479,0.0214236,-0.0218848,0.000982323,0.000772514,-0.00878815
7,8,0,0,0,0,0,0,231.8,254,0,0,0,0,0,0,0,231.8,766,0,-0.000451622,-0.000155793,0.000516243,0.0161666,-0.00191227,0.000639114,0.000453873,0.000341454,-0.0403725,0.00125107,0.000429993,0.0140994,-0.0205878,0.000791588,0.00103954,-0.00890259
7,9,0,0,0,0,0,0,231.8,254,0,0,0,0,0,0,0,231.8,766,0,0.000769082,0.00156082,0.000974007,0.0178451,-0.00179783,0.00163094,0.000759048,0.000913658,-0.0331246,0.000335541,0.00096405,0.0110858,-0.0205115,0.00113491,0.00058178,-0.00848297
8,0,0,0,0,0,0,0,231.8,254,0,0,0,0,0,0,0,231.8,766,0,0.000807228,-0.000117646,0.00120289,0.0159759,0.000643578,0.000715408,0.00171272,0.000379601,0.0622428,0.00109848,0.000811462,0.0135653,-0.0201682,6.67954e-05,0.00069622,-0.00920776
8,1,0,0,0,0,0,0,231.8,254,0,0,0,0,0,0,0,231.8,766,0,0.00107426,-0.00030838,0.000516243,0.0160522,0.00270351,-0.00031456,0.000415726,0.000608482,-0.031675,0.000259247,0.000811462,0.011658,-0.0215033,-0.000810585,-0.000295601,-0.00867371
8,2,0,0,0,0,0,0,231.8,254,0,0,0,0,0,0,0,231.8,766,0,-0.000146446,0.00102676,0.000401802,0.0164718,0.00682339,0.000982437,0.000530167,0.00133327,-0.0241601,0.00125107,0.000277405,0.010361,-0.0217703,0.000791588,0.00103954,-0.00905518
8,3,0,0,0,0,0,0,231.8,254,0,0,0,0,0,0,0,231.8,766,0,0.00237125,0.00095047,0.00146992,0.0170059,0.00846371,0.00147835,0.00106422,0.000951805,0.0834525,0.00121292,0.000849609,0.00887325,-0.0189474,0.0018597,0.00069622,-0.00848297
8,4,0,0,0,0,0,0,231.8,254,0,0,0,0,0,0,0,231.8,766,0,-0.00022274,0.00175156,0.00162251,0.0166626,0.00781521,0.000982437,0.00106422,0.00137142,-0.0208031,0.00140366,0.00107849,0.00582149,-0.0218848,0.000944176,0.00145916,-0.00882629
8,5,0,0,0,0,0,0,231.8,254,0,0,0,0,0,0,0,231.8,766,0,0.00015873,0.000454559,0.000134773,0.0172729,0.0101422,0.000639114,0.00011055,0.000799217,-0.0212991,0.000602569,0.000506287,0.0045245,-0.0206641,0.000753441,0.00138287,-0.00943665
8,6,0,0,0,0,0,0,231.8,254,0,0,0,0,0,0,0,231.8,766,0,0.000616494,0.000988617,0.00135548,0.0172729,0.00686153,0.000982437,0.000530167,0.000913658,0.0939048,0.00102219,1.03759e-05,0.00868252,-0.0202826,0.000982323,0.000276604,-0.00806335
8,7,0,0,0,0,0,0,231.8,254,0,0,0,0,0,0,0,231.8,766,0,0.00115055,3.49423e-05,0.000592537,0.0160904,0.00548824,0.000867996,0.000911636,0.000799217,-0.0134026,0.000297394,0.00145996,0.0120395,-0.0208929,0.00140194,0.00107769,-0.00970367
8,8,0,0,0,0,0,0,231.8,254,0,0,0,0,0,0,0,231.8,766,0,0.000463906,0.000645294,0.000439949,0.0170059,0.00552639,-0.000123825,0.000835342,-0.000230751,-0.0531136,0.00102219,0.000697021,0.0131457,-0.0214651,0.00124935,-2.8572e-05,-0.00878815
8,9,0,0,0,0,0,0,231.8,254,0,0,0,0,0,0,0,231.8,766,0,0.000578347,0.000454559,0.000401802,0.0163574,0.00514492,0.00105873,-0.000423508,0.000570335,-0.00741356,0.00109848,0.000391846,0.0119632,-0.0209311,0.000524559,0.000963249,-0.00878815
9,0,0,0,0,0,0,0,231.8,254,0,0,0,0,0,0,0,231.8,766,0,-0.000489769,0.000759735,5.84793e-05,0.0167007,0.0047253,0.00124947,0.00049202,-7.81631e-05,0.0319923,0.000640716,0.000506287,0.0150149,-0.0208929,0.000944176,0.000734367,-0.00958923
9,1,0,0,0,0,0,0,231.8,254,0,0,0,0,0,0,0,231.8,766,0,0.0011124,0.000416412,0.000630684,0.0156707,0.00438198,0.00056282,-4.2038e-05,0.000951805,0.0514472,-8.40761e-05,0.000353699,0.0132983,-0.0213889,0.000982323,0.000619926,-0.00905518
9,2,0,0,0,0,0,0,231.8,254,0,0,0,0,0,0,0,231.8,766,0,0.00103611,0.000569,0.000974007,0.0173492,0.00403866,0.000791702,0.000759048,0.000341454,-0.0490701,0.00163254,0.00191772,0.0118487,-0.0207785,0.00170712,0.00214581,-0.00905518
9,3,0,0,0,0,0,0,231.8,254,0,0,0,0,0,0,0,231.8,766,0,0.000921669,3.49423e-05,0.000325508,0.0162429,0.00606045,-0.000123825,-0.000499802,0.000227013,0.0459922,-4.59291e-05,0.000201111,0.0124209,-0.0216177,0.000143089,-0.000448189,-0.00947479
9,4,0,0,0,0,0,0,231.8,254,0,0,0,0,0,0,0,231.8,766,0,-0.000184593,0.00137009,0.000668831,0.015213,0.00522121,0.000295792,-0.000576096,0.000379601,0.0472511,0.00102219,0.000697021,0.0123065,-0.021427,2.86484e-05,0.000429192,-0.0081778
9,5,0,0,0,0,0,0,231.8,254,0,0,0,0,0,0,0,231.8,766,0,0.00137943,0.000530853,0.000668831,0.0173492,0.00613674,0.00121132,0.00125496,0.000913658,-0.0447976,0.000755157,0.000811462,0.0111621,-0.0202063,0.00113491,0.000772514,-0.00852112
9,6,0,0,0,0,0,0,231.8,254,0,0,0,0,0,0,0,231.8,766,0,0.000578347,0.000301971,0.000745125,0.0168914,0.0053738,0.000677261,0.000263138,7.44248e-05,0.053202,0.000678863,0.000201111,0.00933102,-0.0215033,-9.49856e-06,0.00153545,-0.00871185
9,7,0,0,0,0,0,0,231.8,254,0,0,0,0,0,0,0,231.8,766,0,0.000807228,0.00106491,-0.00020855,0.0157089,0.00663265,0.000715408,0.00011055,0.00026516,0.0605643,0.000144806,0.00096405,0.00746181,-0.0205878,0.00113491,0.0010014,-0.00974182
9,8,0,0,0,0,0,0,231.8,254,0,0,0,0,0,0,0,231.8,766,0,0.00141758,0.000645294,0.000516243,0.0166626,0.00346645,0.000524673,0.0013694,0.0010281,-0.0506341,0.000755157,0.000849609,0.0110476,-0.0208167,0.00102047,0.000238457,-0.00913147
9,9,0,0,0,0,0,0,231.8,254,0,0,0,0,0,0,0,231.8,766,0,0.000997963,0.000759735,0.00162251,0.0176925,0.00449642,0.00102058,0.000186844,0.00076107,0.0565208,0.000907745,0.000925903,0.00910213,-0.0202063,0.000295677,0.000886955,-0.00848297
10,0,0,0,0,0,0,0,231.8,254,0,0,0,0,0,0,0,231.8,766,0,0.000349465,-7.94986e-05,-0.000284843,0.0160522,0.00468716,0.000410232,-4.2038e-05,-0.000345192,0.0683082,0.000411835,0.000124817,0.0100558,-0.02116,0.000295677,0.0010014,-0.00989441
10,1,0,0,0,0,0,0,231.8,254,0,0,0,0,0,0,0,231.8,766,0,0.000349465,-0.000384674,0.000516243,0.0152511,-4.92088e-06,-4.75312e-05,0.000720901,0.000455895,-0.0621545,0.000488129,0.000658874,0.0107806,-0.0213507,0.000333824,-0.000753365,-0.00836853
10,2,0,0,0,0,0,0,231.8,254,0,0,0,0,0,0,0,231.8,766,0,0.000921669,0.00129379,0.000897713,0.0167389,-0.000424538,0.000333939,0.000720901,0.000379601,-0.0179803,-7.78213e-06,0.000277405,0.0127642,-0.0210837,0.00025753,0.00126843,-0.00943665
10,3,0,0,0,0,0,0,231.8,254,0,0,0,0,0,0,0,231.8,766,0,0.000921669,-0.00030838,-5.59617e-05,0.016777,-0.00278965,0.000372085,0.000415726,-0.000268898,-0.00214928,-0.000503693,0.000544433,0.0116961,-0.0204352,0.000600853,0.000352898,-0.0093985
10,4,0,0,0,0,0,0,231.8,254,0,0,0,0,0,0,0,231.8,766,0,0.000463906,0.000569,5.84793e-05,0.0158615,-0.00317112,0.000257645,0.000263138,0.000570335,0.0707496,0.000488129,0.000201111,0.0103228,-0.0211218,0.000219383,-0.000600777,-0.00924591
10,5,0,0,0,0,0,0,231.8,254,0,0,0,0,0,0,0,231.8,766,0,0.000769082,0.000607147,0.000592537,0.0161285,-0.00477329,-0.000352707,0.00129311,0.00106625,-0.015844,-0.000465546,0.00153625,0.0131076,-0.0209311,0.000867882,0.000619926,-0.0103903
10,6,0,0,0,0,0,0,231.8,254,0,0,0,0,0,0,0,231.8,766,0,0.000425759,0.000759735,0.00116474,0.0166626,-0.00290409,0.00128761,0.0013694,-0.000268898,-0.0190102,0.000564422,0.000391846,0.0138705,-0.0199774,0.00147823,0.000619926,-0.0075293
10,7,0,0,0,0,0,0,231.8,254,0,0,0,0,0,0,0,231.8,766,0,0.00015873,-0.000575409,0.00112659,0.0159378,-0.00465885,0.000867996,0.000568314,0.000494041,0.0761283,0.000755157,0.00119293,0.0157397,-0.0211981,0.000639,0.00107769,-0.00848297
10,8,0,0,0,0,0,0,231.8,254,0,0,0,0,0,0,0,231.8,766,0,0.000311318,0.000607147,9.66262e-05,0.0159759,-0.00439182,0.000333939,0.00114052,0.000837364,-0.018438,0.000297394,0.000773315,0.0128405,-0.0200156,0.000906029,0.000391045,-0.00859741
10,9,0,0,0,0,0,0,231.8,254,0,0,0,0,0,0,0,231.8,766,0,0.00153202,0.00148453,0.00177509,0.0170822,-0.00225559,0.000219498,0.000720901,0.00133327,-0.0156152,0.00109848,0.000925903,0.0107043,-0.0207785,0.000791588,0.00206951,-0.00871185
11,0,0,0,0,0,0,0,231.8,254,0,0,0,0,0,0,0,231.8,766,0,0.000921669,-0.000651703,0.000325508,0.0157852,-0.00252262,-0.00031456,0.000263138,0.000112572,0.0898231,0.0002211,0.000887756,0.00780514,-0.021427,0.000333824,0.000886955,-0.00779633
11,1,0,0,0,0,0,0,231.8,254,0,0,0,0,0,0,0,231.8,766,0,0.00103611,0.000149383,0.00131733,0.0160522,-0.00801579,-0.000429001,0.000644607,-1.86916e-06,-0.0163781,0.000411835,0.000201111,0.00654629,-0.0210837,0.00025753,0.000810661,-0.00955109
11,2,0,0,0,0,0,0,231.8,254,0,0,0,0,0,0,0,231.8,766,0,0.00115055,0.00102676,0.000783272,0.016777,-0.00542179,-8.56782e-05,0.00011055,0.000303307,-0.0195824,0.0002211,0.000697021,0.0114672,-0.0196341,0.000181236,0.00145916,-0.00993256
11,3,0,0,0,0,0,0,231.8,254,0,0,0,0,0,0,0,231.8,766,0,-0.000413475,0.000530853,0.000706978,0.0163574,-0.00484959,2.87627e-05,0.000339432,-0.00049778,0.0943626,3.03648e-05,0.00046814,0.012192,-0.0197485,2.86484e-05,0.00058178,-0.00924591
11,4,0,0,0,0,0,0,231.8,254,0,0,0,0,0,0,0,231.8,766,0,0.000654641,-0.000537262,0.00055439,0.0151748,-0.0034,-0.000200119,0.000873489,-0.000307045,-0.014547,6.85118e-05,0.000315552,0.0114291,-0.0215033,2.86484e-05,0.00168804,-0.00936035
11,5,0,0,0,0,0,0,231.8,254,0,0,0,0,0,0,0,231.8,766,0,0.000654641,0.000225677,0.00055439,0.0163574,-0.00370518,0.000295792,0.00110237,0.000417748,-0.0557839,6.85118e-05,0.000925903,0.0118869,-0.0197867,0.00124935,-0.000143013,-0.0100089
11,6,0,0,0,0,0,0,231.8,254,0,0,0,0,0,0,0,231.8,766,0,0.00122685,0.000111236,0.000211067,0.0167389,-0.00492588,0.000715408,0.00106422,0.00076107,-0.0107705,0.000488129,0.000391846,0.0105899,-0.0201682,0.000333824,0.000124016,-0.00913147
11,7,0,0,0,0,0,0,231.8,254,0,0,0,0,0,0,0,231.8,766,0,0.0005402,0.000492706,-9.41086e-05,0.0166244,-0.00206486,0.000295792,0.000339432,0.000913658,0.0382484,-0.000198517,0.00115479,0.0116198,-0.0211981,0.00025753,0.00115398,-0.00974182
11,8,0,0,0,0,0,0,231.8,254,0,0,0,0,0,0,0,231.8,766,0,-0.00022274,0.000797882,0.00112659,0.0155563,-0.000233803,0.000715408,0.00121681,0.000341454,0.0525916,0.000945892,-0.000142212,0.0115817,-0.0215033,0.000867882,0.000925102,-0.00947479
11,9,0,0,0,0,0,0,231.8,254,0,0,0,0,0,0,0,231.8,766,0,0.00137943,0.00152267,0.00143177,0.017044,0.00373348,0.00140205,0.00133125,0.0010281,-0.056585,0.00102219,0.000201111,0.0128787,-0.0205878,0.0012112,0.00168804,-0.00936035
12,0,0,0,0,0,0,0,231.8,254,0,0,0,0,0,0,0,231.8,766,0,-3.20049e-05,0.000683441,0.000668831,0.0154037,0.00201687,0.000257645,0.000644607,0.000341454,0.039698,0.000182953,0.000277405,0.0138705,-0.0213507,0.000639,0.000925102,-0.00882629
12,1,0,0,0,0,0,0,231.8,254,0,0,0,0,0,0,0,231.8,766,0,0.00107426,0.000645294,0.00139362,0.0157852,0.00400051,0.000524673,0.000263138,0.000646629,0.0438178,0.00113663,0.00046814,0.0108569,-0.0202444,-0.000390968,0.000963249,-0.00646118
12,2,0,0,0,0,0,0,231.8,254,0,0,0,0,0,0,0,231.8,766,0,0.000196877,0.0011412,0.000401802,0.0166244,0.00628933,0.00094429,0.00140755,-4.00161e-05,-0.052694,0.00128921,0.00145996,0.0132602,-0.019863,0.00147823,0.000848808,-0.00909332
12,3,0,0,0,0,0,0,231.8,254,0,0,0,0,0,0,0,231.8,766,0,0.000730935,-0.000346527,-0.000246697,0.0159378,0.00792965,-0.000200119,0.000873489,7.44248e-05,0.0472129,-0.000579987,-0.000752564,0.0126879,-0.0210837,0.000410118,9.57493e-06,-0.00951294
12,4,0,0,0,0,0,0,231.8,254,0,0,0,0,0,0,0,231.8,766,0,0.0005402,0.00106491,0.00124104,0.0176925,0.00857815,0.00094429,0.000949783,0.000837364,0.0564826,0.000564422,4.85228e-05,0.0114291,-0.020397,0.000829735,0.000963249,-0.00840668
12,5,0,0,0,0,0,0,231.8,254,0,0,0,0,0,0,0,231.8,766,0,0.0011124,7.30893e-05,5.84793e-05,0.016777,0.00819668,0.00117317,0.000530167,0.000951805,-0.056852,0.000869598,-0.000142212,0.011391,-0.0205878,0.00124935,0.00134472,-0.00844482
12,6,0,0,0,0,0,0,231.8,254,0,0,0,0,0,0,0,231.8,766,0,-0.000260887,0.00018753,-0.000399284,0.0161285,0.00556454,-8.56782e-05,0.000873489,0.000341454,0.0494636,-0.000503693,-0.000371094,0.0123065,-0.0217322,0.000524559,-0.000104866,-0.00909332
12,7,0,0,0,0,0,0,231.8,254,0,0,0,0,0,0,0,231.8,766,0,0.000921669,0.00156082,0.000783272,0.0162048,0.00838741,0.00102058,0.000224991,0.00137142,0.0649894,0.00121292,0.000620727,0.018677,-0.0210455,0.00197414,0.00153545,-0.00905518
12,8,0,0,0,0,0,0,231.8,254,0,0,0,0,0,0,0,231.8,766,0,0.000883522,0.000530853,0.00127918,0.0164337,0.00625118,0.00170723,0.000415726,0.000837364,-0.0680291,0.00239548,0.00119293,0.0186389,-0.0213889,0.000371971,0.00145916,-0.00863556
12,9,0,0,0,0,0,0,231.8,254,0,0,0,0,0,0,0,231.8,766,0,0.000463906,0.000874176,0.00093586,0.017044,0.00339016,0.000867996,0.000911636,-0.000612221,-0.0237023,0.00117477,-0.0002948,0.0193255,-0.0207022,0.000639,-0.000257454,-0.00829224
13,0,0,0,0,0,0,0,231.8,254,0,0,0,0,0,0,0,231.8,766,0,-3.20049e-05,0.000683441,0.00154621,0.0168914,0.00625118,0.000791702,0.00049202,0.000494041,0.000559159,-0.000389252,0.000620727,0.018143,-0.0202444,0.00109676,0.00149731,-0.00901703
13,1,0,0,0,0,0,0,231.8,254,0,0,0,0,0,0,0,231.8,766,0,0.000463906,0.000416412,0.00116474,0.0159378,0.00689968,0.00136391,0.000682754,0.000379601,0.131937,0.000945892,0.00046814,0.0184481,-0.0200919,0.000867882,0.0022221,-0.00802521
13,2,0,0,0,0,0,0,231.8,254,0,0,0,0,0,0,0,231.8,766,0,0.000730935,0.000149383,0.000745125,0.0164337,0.007243,0.000715408,-8.0185e-05,0.000799217,0.185419,0.000640716,0.000239258,0.021004,-0.0207022,0.000448265,0.00203136,-0.00936035
13,3,0,0,0,0,0,0,231.8,254,0,0,0,0,0,0,0,231.8,766,0,0.000235024,0.000569,-0.000284843,0.0158233,0.00567898,0.000333939,0.00106422,-1.86916e-06,0.147349,-0.000198517,0.000735168,0.0191348,-0.0211218,0.000867882,0.00020031,-0.00958923
13,4,0,0,0,0,0,0,231.8,254,0,0,0,0,0,0,0,231.8,766,0,0.000883522,0.000301971,0.00116474,0.0167389,0.00819668,0.000524673,0.000949783,0.000608482,0.0806297,-0.000274811,0.000201111,0.0192492,-0.0190619,0.00136379,0.00126843,-0.00768188
13,5,0,0,0,0,0,0,231.8,254,0,0,0,0,0,0,0,231.8,766,0,0.0005402,-0.000155793,0.000325508,0.0150985,0.00678524,0.000867996,0.000415726,0.000417748,-0.100645,0.000373688,0.00123108,0.0181048,-0.0206259,0.00105862,0.00138287,-0.00825409
13,6,0,0,0,0,0,0,231.8,254,0,0,0,0,0,0,0,231.8,766,0,0.000273171,-3.20468e-06,0.000287361,0.0146789,0.00483974,0.000257645,-0.000156479,3.62778e-05,-0.0728356,0.0002211,-0.000943298,0.014786,-0.0221136,-0.00111576,-0.000677071,-0.0075293
13,7,0,0,0,0,0,0,231.8,254,0,0,0,0,0,0,0,231.8,766,0,0.000196877,0.000607147,0.00093586,0.0156707,0.00567898,0.00121132,0.000720901,0.000379601,0.0458396,0.00102219,0.000658874,0.0169604,-0.0201682,0.00201229,0.00172619,-0.00825409
13,8,0,0,0,0,0,0,231.8,254,0,0,0,0,0,0,0,231.8,766,0,0.000997963,0.000530853,0.00150806,0.0170059,0.0053738,0.000410232,0.000720901,0.000989952,-0.0673425,0.000678863,0.000162964,0.0138705,-0.0205115,0.000486412,0.00153545,-0.00844482
13,9,0,0,0,0,0,0,231.8,254,0,0,0,0,0,0,0,231.8,766,0,0.000425759,0.000340118,0.00116474,0.0170059,0.00506863,0.000677261,0.000301285,-0.000268898,-0.0660455,0.00125107,0.000811462,0.010094,-0.0215033,0.000448265,0.000658073,-0.0106192
14,0,0,0,0,0,0,0,231.8,254,0,0,0,0,0,0,0,231.8,766,0,0.000578347,0.00133194,0.000211067,0.0162429,0.00304684,0.00136391,0.00167458,0.000455895,0.0581229,0.000564422,0.000925903,0.0120776,-0.0208929,0.000791588,9.57493e-06,-0.00920776
14,1,0,0,0,0,0,0,231.8,254,0,0,0,0,0,0,0,231.8,766,0,-0.000146446,0.00144638,0.00154621,0.0173111,0.00529751,0.000906143,0.000644607,0.0016766,-0.0509774,0.00201401,8.66698e-05,0.0113147,-0.02013,0.00163082,0.00058178,-0.00913147
14,2,0,0,0,0,0,0,231.8,254,0,0,0,0,0,0,0,231.8,766,0,0.00015873,0.000836029,-5.59617e-05,0.0164337,0.00422939,0.000867996,-0.000347214,0.000455895,-0.0872552,0.000907745,0.000620727,0.00795772,-0.0206641,0.000600853,0.00191692,-0.00905518
14,3,0,0,0,0,0,0,231.8,254,0,0,0,0,0,0,0,231.8,766,0,0.000959816,-0.000117646,0.000134773,0.0163574,0.00117764,0.000867996,0.000415726,0.000341454,-0.0382363,-7.78213e-06,0.000925903,0.0121157,-0.0204352,0.00151638,0.00126843,-0.00760559
14,4,0,0,0,0,0,0,231.8,254,0,0,0,0,0,0,0,231.8,766,0,0.00015873,0.000607147,0.000745125,0.0164337,-0.00160709,0.00140205,0.000759048,0.000875511,0.00895149,0.000640716,0.000429993,0.0160067,-0.0203207,0.000410118,0.000734367,-0.00710968
14,5,0,0,0,0,0,0,231.8,254,0,0,0,0,0,0,0,231.8,766,0,0.000463906,0.00106491,0.000783272,0.0166244,0.000300255,0.000715408,0.000224991,0.000494041,0.0274909,0.000793304,-0.000752564,0.0155108,-0.0211981,0.00113491,0.00237469,-0.00840668
14,6,0,0,0,0,0,0,231.8,254,0,0,0,0,0,0,0,231.8,766,0,0.000578347,0.00102676,0.000630684,0.0162429,-0.000195656,0.000906143,-4.2038e-05,0.000455895,-0.0706231,0.00201401,-6.59181e-05,0.00803402,-0.0205115,0.00178341,0.00103954,-0.00821594
14,7,0,0,0,0,0,0,231.8,254,0,0,0,0,0,0,0,231.8,766,0,0.00015873,0.00018753,0.00158436,0.0169677,-0.00111118,0.00102058,0.00152199,0.000799217,0.0313819,0.0015181,0.00161255,0.0135272,-0.0215414,0.000829735,0.000543633,-0.00764374
14,8,0,0,0,0,0,0,231.8,254,0,0,0,0,0,0,0,231.8,766,0,4.4289e-05,0.000340118,-5.59617e-05,0.0157089,-0.00343815,0.000372085,-0.000423508,0.000455895,0.0298179,0.000755157,-0.00105774,0.0149386,-0.0207022,0.000333824,-6.6719e-05,-0.0102377
14,9,0,0,0,0,0,0,231.8,254,0,0,0,0,0,0,0,231.8,766,0,0.00137943,0.000454559,0.000974007,0.017044,-0.00134006,0.000639114,0.000720901,0.000455895,-0.0589883,0.0014418,0.000620727,0.0191348,-0.0216559,0.0018597,0.000658073,-0.00821594
15,0,0,0,0,0,0,0,231.8,254,0,0,0,0,0,0,0,231.8,766,0,0.000120583,-0.00030838,0.000630684,0.015747,-0.000119362,0.00056282,0.00098793,-0.000688515,0.043856,0.0015181,0.000506287,0.0227588,-0.0213889,0.000715294,4.77219e-05,-0.00871185
15,1,0,0,0,0,0,0,231.8,254,0,0,0,0,0,0,0,231.8,766,0,0.00015873,0.000645294,0.00154621,0.0167389,-0.000920448,0.00056282,-0.000118332,0.000112572,0.0524009,0.000907745,0.000849609,0.0181811,-0.0212363,0.000867882,0.000124016,-0.00890259
15,2,0,0,0,0,0,0,231.8,254,0,0,0,0,0,0,0,231.8,766,0,6.14207e-06,0.000378265,0.000783272,0.0165481,-0.00198856,0.00102058,0.000263138,-0.000650368,-0.0567757,0.00178513,-0.000104065,0.014786,-0.0212744,0.00105862,0.00149731,-0.00878815
15,3,0,0,0,0,0,0,231.8,254,0,0,0,0,0,0,0,231.8,766,0,0.000387612,0.00117935,0.000859566,0.016777,-0.00305668,0.00132576,0.00102608,0.00133327,0.0496543,0.000602569,0.000811462,0.0161212,-0.0210074,0.0012875,0.00168804,-0.00829224
15,4,0,0,0,0,0,0,231.8,254,0,0,0,0,0,0,0,231.8,766,0,0.0005402,0.000683441,0.00131733,0.0157089,-0.00160709,-0.000276413,0.000835342,0.000303307,0.0644935,0.00106033,0.000620727,0.0171511,-0.0215414,-0.000276527,0.000276604,-0.00974182
15,5,0,0,0,0,0,0,231.8,254,0,0,0,0,0,0,0,231.8,766,0,0.000502053,0.000645294,0.00101215,0.0162429,-0.000157509,0.000600967,0.000263138,0.000684776,-0.0646722,0.000831451,-0.000752564,0.0161593,-0.0206641,-0.000162086,-0.000143013,-0.00726227
15,6,0,0,0,0,0,0,231.8,254,0,0,0,0,0,0,0,231.8,766,0,0.000654641,-0.000117646,-0.000132256,0.0168914,0.00583157,0.000829849,0.000873489,0.000570335,-0.0200784,0.00155624,-0.000142212,0.0160067,-0.0209311,0.00140194,0.000352898,-0.00836853
15,7,0,0,0,0,0,0,231.8,254,0,0,0,0,0,0,0,231.8,766,0,-0.000146446,7.30893e-05,0.000668831,0.0157089,0.00655636,0.00056282,-8.0185e-05,0.000608482,-0.00115746,-0.00016037,0.000429993,0.0204699,-0.021694,0.000295677,0.000963249,-0.00806335
15,8,0,0,0,0,0,0,231.8,254,0,0,0,0,0,0,0,231.8,766,0,-3.20049e-05,0.00110306,0.000516243,0.0157089,0.00934109,0.000791702,0.000415726,-0.000154457,0.0701392,0.000678863,-0.0002948,0.0208514,-0.0206259,0.00147823,0.00058178,-0.00924591
15,9,0,0,0,0,0,0,231.8,254,0,0,0,0,0,0,0,231.8,766,0,0.000578347,-0.000422821,0.000592537,0.01651,0.00773891,0.00056282,0.000759048,0.000494041,-0.0146996,0.00147995,0.000239258,0.0229495,-0.0209692,0.00163082,9.57493e-06,-0.00863556
16,0,0,0,0,0,0,0,231.8,254,0,0,0,0,0,0,0,231.8,766,0,0.000692788,0.00201858,0.00124104,0.0176544,0.0106381,0.00147835,0.000682754,0.000303307,-0.0156533,0.00155624,0.000544433,0.0207751,-0.0204352,0.00117306,0.00176434,-0.007453
16,1,0,0,0,0,0,0,231.8,254,0,0,0,0,0,0,0,231.8,766,0,0.000502053,0.000225677,0.00017292,0.017044,0.0101803,0.000715408,0.00110237,0.000455895,0.076815,0.000297394,0.000315552,0.0184481,-0.0210837,0.000944176,0.000619926,-0.00905518
16,2,0,0,0,0,0,0,231.8,254,0,0,0,0,0,0,0,231.8,766,0,0.000463906,0.000416412,-0.000170403,0.0162811,0.0103711,0.000867996,0.00171272,0.00121883,-0.0146996,0.000602569,0.000391846,0.0205844,-0.0208929,0.00151638,0.00107769,-0.00878815
16,3,0,0,0,0,0,0,231.8,254,0,0,0,0,0,0,0,231.8,766,0,-0.00022274,0.000416412,-1.78147e-05,0.0146408,0.0113247,-0.00031456,-4.2038e-05,-0.00114628,-0.0129067,0.000297394,-0.000218506,0.0182574,-0.0222281,0.000448265,0.000619926,-0.00913147
16,4,0,0,0,0,0,0,231.8,254,0,0,0,0,0,0,0,231.8,766,0,0.000997963,0.000569,0.00055439,0.0161285,0.0101803,-0.000161972,0.00060646,0.000684776,0.0915015,0.00071701,0.000162964,0.0165408,-0.0213126,0.000639,-0.000219307,-0.00878815
16,5,0,0,0,0,0,0,231.8,254,0,0,0,0,0,0,0,231.8,766,0,-0.00071865,0.00117935,0.000516243,0.0161285,0.0103329,0.000410232,0.000530167,0.000303307,-0.0125634,0.00125107,0.000162964,0.0157779,-0.021694,0.00102047,0.00115398,-0.0101614
16,6,0,0,0,0,0,0,231.8,254,0,0,0,0,0,0,0,231.8,766,0,0.000616494,0.000988617,0.000974007,0.0169677,0.0127743,0.00151649,0.000186844,0.000913658,-0.0151192,-0.000351105,0.000429993,0.0202029,-0.02116,0.00105862,0.00195507,-0.00943665
16,7,0,0,0,0,0,0,231.8,254,0,0,0,0,0,0,0,231.8,766,0,-0.00022274,0.000759735,0.000974007,0.0170059,0.0121258,0.00136391,0.000339432,-0.000268898,0.0973762,0.00140366,0.000773315,0.0217669,-0.0203207,0.0012875,0.000925102,-0.00802521
16,8,0,0,0,0,0,0,231.8,254,0,0,0,0,0,0,0,231.8,766,0,0.000502053,-0.000232087,-0.000475578,0.0158233,0.00949368,6.69097e-05,0.00060646,0.00076107,-0.0110375,0.000297394,-0.00128662,0.0189441,-0.0213889,0.000944176,0.000391045,-0.0101233
16,9,0,0,0,0,0,0,231.8,254,0,0,0,0,0,0,0,231.8,766,0,0.000845375,0.000645294,0.000211067,0.0163192,0.00815853,0.00056282,0.0013694,0.00076107,-0.0506341,0.000259247,0.000697021,0.0201648,-0.0206641,0.00182156,0.00107769,-0.00855927
17,0,0,0,0,0,0,0,231.8,254,0,0,0,0,0,0,0,231.8,766,0,0.000578347,0.000492706,2.03323e-05,0.0165863,0.00968441,0.000982437,0.000759048,-1.86916e-06,-0.00710838,0.000259247,0.000277405,0.0186389,-0.0205496,0.00105862,8.58689e-05,-0.00840668
17,1,0,0,0,0,0,0,231.8,254,0,0,0,0,0,0,0,231.8,766,0,0.000845375,-0.000918732,0.000249214,0.0161666,0.00739559,0.000524673,0.00152199,0.000722923,0.0316871,0.000335541,0.00138367,0.0170749,-0.0215796,0.000906029,0.000734367,-0.00947479
17,2,0,0,0,0,0,0,231.8,254,0,0,0,0,0,0,0,231.8,766,0,-0.000260887,0.000645294,0.00017292,0.0152511,0.00529751,-4.75312e-05,0.000148697,-0.000268898,0.053469,0.000335541,-0.000409241,0.0137942,-0.0212363,0.000295677,0.00107769,-0.00897888
17,3,0,0,0,0,0,0,231.8,254,0,0,0,0,0,0,0,231.8,766,0,0.000273171,0.000569,0.000287361,0.0164337,0.0047253,0.000753555,-4.2038e-05,0.00118069,-0.0524651,0.000182953,0.000887756,0.012955,-0.0212744,0.000181236,0.00187878,-0.00825409
17,4,0,0,0,0,0,0,231.8,254,0,0,0,0,0,0,0,231.8,766,0,-0.000451622,0.000836029,0.00101215,0.0168533,0.00270351,0.000906143,0.00148384,0.00129513,0.0421775,0.00163254,0.00207031,0.0155871,-0.0197104,0.00140194,0.000848808,-0.00852112
17,5,0,0,0,0,0,0,231.8,254,0,0,0,0,0,0,0,231.8,766,0,0.000845375,0.00144638,0.000859566,0.0163192,0.00251278,0.000867996,0.00152199,0.00140957,0.0461829,0.000297394,-0.000142212,0.0126117,-0.0202063,0.00166897,0.00142101,-0.00821594
17,6,0,0,0,0,0,0,231.8,254,0,0,0,0,0,0,0,231.8,766,0,-3.20049e-05,-0.000117646,9.66262e-05,0.0154419,-0.00267521,0.000410232,0.000568314,0.000684776,-0.050367,0.00071701,0.000620727,0.0149005,-0.0213889,0.00182156,0.0010014,-0.00886444
17,7,0,0,0,0,0,0,231.8,254,0,0,0,0,0,0,0,231.8,766,0,0.000463906,-0.000804291,-5.59617e-05,0.015747,0.00010952,0.000639114,0.000415726,-0.000192604,0.0512946,0.00128921,-0.000867005,0.0174945,-0.0215796,-4.76455e-05,-6.6719e-05,-0.00920776
17,8,0,0,0,0,0,0,231.8,254,0,0,0,0,0,0,0,231.8,766,0,0.000997963,0.000530853,0.000706978,0.0160141,-0.00107304,0.000829849,0.00117867,0.000913658,0.0588859,0.000106659,0.000544433,0.0175708,-0.0222281,0.000371971,0.00164989,-0.00829224
17,9,0,0,0,0,0,0,231.8,254,0,0,0,0,0,0,0,231.8,766,0,0.00122685,0.000263824,0.000783272,0.0162811,0.00297054,-0.000429001,-0.000309067,0.000455895,-0.0557076,-0.000198517,0.000544433,0.0180667,-0.0223044,0.000906029,0.000124016,-0.00916962
18,0,0,0,0,0,0,0,231.8,254,0,0,0,0,0,0,0,231.8,766,0,-0.000108299,0.000759735,0.00127918,0.0161285,0.00419125,0.000829849,0.000682754,0.000646629,0.0511039,0.0021666,0.000353699,0.0156253,-0.0213889,0.000410118,0.0010014,-0.00852112
18,1,0,0,0,0,0,0,231.8,254,0,0,0,0,0,0,0,231.8,766,0,-0.000108299,0.000340118,0.000668831,0.0172348,0.00339016,0.00102058,0.000873489,0.00152401,0.065676,0.000488129,0.00191772,0.0137561,-0.0211218,0.00166897,0.00123028,-0.00859741
18,2,0,0,0,0,0,0,231.8,254,0,0,0,0,0,0,0,231.8,766,0,0.0005402,3.49423e-05,0.0010503,0.01651,0.0035046,0.00102058,0.000682754,0.000112572,-0.0656258,0.000411835,-0.000332947,0.0152056,-0.0197867,0.000333824,0.000810661,-0.00974182
18,3,0,0,0,0,0,0,231.8,254,0,0,0,0,0,0,0,231.8,766,0,0.00160831,-7.94986e-05,0.000363655,0.0160904,0.0028561,0.000410232,0.00106422,0.000379601,-0.022062,-0.000236664,-6.59181e-05,0.015816,-0.0209311,0.000753441,0.00119213,-0.00730042
18,4,0,0,0,0,0,0,231.8,254,0,0,0,0,0,0,0,231.8,766,0,0.000883522,-0.00114761,0.000592537,0.0163574,0.00129208,0.00094429,0.000873489,0.00110439,0.00078804,0.000602569,0.00058258,0.0176852,-0.0207785,0.000944176,0.00145916,-0.00749115
18,5,0,0,0,0,0,0,231.8,254,0,0,0,0,0,0,0,231.8,766,0,0.00015873,0.00102676,0.000134773,0.015747,0.00274166,0.000791702,0.000835342,0.00026516,0.131823,0.000106659,0.00058258,0.0178759,-0.0213507,0.000219383,-0.000143013,-0.00943665
18,6,0,0,0,0,0,0,231.8,254,0,0,0,0,0,0,0,231.8,766,0,0.0011887,0.00140823,2.03323e-05,0.01651,0.00445827,0.00128761,0.00175087,0.00114254,0.185953,0.000526275,0.00138367,0.0191348,-0.0202063,0.00166897,0.00180248,-0.0100089
18,7,0,0,0,0,0,0,231.8,254,0,0,0,0,0,0,0,231.8,766,0,0.000235024,7.30893e-05,0.000630684,0.0162811,0.0047253,0.000677261,0.000873489,3.62778e-05,0.147806,0.000373688,-6.59181e-05,0.0153582,-0.0212744,0.000333824,0.00130657,-0.00905518
18,8,0,0,0,0,0,0,231.8,254,0,0,0,0,0,0,0,231.8,766,0,0.000730935,0.000607147,0.000134773,0.0166244,0.00438198,-4.75312e-05,0.000911636,0.000684776,0.08021,0.00140366,0.00176514,0.0170749,-0.0207404,0.00113491,0.00149731,-0.0075293
18,9,0,0,0,0,0,0,231.8,254,0,0,0,0,0,0,0,231.8,766,0,0.00103611,0.000530853,0.000630684,0.0169296,0.00182613,0.00056282,0.00060646,0.00106625,-0.0983941,0.00109848,0.00187958,0.0177615,-0.0204352,0.000295677,0.000734367,-0.0100089
19,0,0,0,0,0,0,0,231.8,254,0,0,0,0,0,0,0,231.8,766,0,-7.01519e-05,-0.00068985,0.000325508,0.0157089,0.00247463,0.000715408,0.000377579,0.000188866,-0.0707375,-0.000885163,-0.000180359,0.0156253,-0.021427,2.86484e-05,0.00020031,-0.00890259
19,1,0,0,0,0,0,0,231.8,254,0,0,0,0,0,0,0,231.8,766,0,0.00107426,3.49423e-05,0.000745125,0.0169677,0.00457272,0.000791702,0.000682754,0.000913658,0.0451148,0.000869598,0.00199402,0.018143,-0.0200919,0.00197414,0.00138287,-0.00966553
19,2,0,0,0,0,0,0,231.8,254,0,0,0,0,0,0,0,231.8,766,0,0.00145573,-0.000346527,0.000745125,0.0163192,0.00735744,0.00128761,0.00144569,0.000684776,-0.0668847,-0.000465546,0.00161255,0.0139468,-0.021427,0.00113491,0.000963249,-0.00707153
19,3,0,0,0,0,0,0,231.8,254,0,0,0,0,0,0,0,231.8,766,0,0.000845375,-3.20468e-06,0.000668831,0.0150604,0.00548824,0.000867996,0.00110237,0.000799217,-0.0644051,0.000869598,0.000277405,0.0135653,-0.0204352,0.00113491,0.00138287,-0.00840668
19,4,0,0,0,0,0,0,231.8,254,0,0,0,0,0,0,0,231.8,766,0,0.00015873,0.000340118,0.00112659,0.0173111,0.00190243,0.000486526,0.000720901,0.000417748,0.05839,0.0014418,0.0010022,0.0108569,-0.0208929,0.00109676,0.000619926,-0.00836853
19,5,0,0,0,0,0,0,231.8,254,0,0,0,0,0,0,0,231.8,766,0,0.000845375,0.000836029,0.00093586,0.0156707,0.00312313,0.000219498,0.000415726,7.44248e-05,-0.050367,0.000831451,0.00123108,0.00997951,-0.0222281,-0.000467262,0.00130657,-0.00562195
19,6,0,0,0,0,0,0,231.8,254,0,0,0,0,0,0,0,231.8,766,0,0.00130314,0.000530853,0.000897713,0.016777,0.00319942,0.000257645,0.00098793,0.00076107,-0.0867211,0.000182953,0.00149811,0.0106662,-0.0208929,-9.49856e-06,0.000124016,-0.00920776
19,7,0,0,0,0,0,0,231.8,254,0,0,0,0,0,0,0,231.8,766,0,0.000578347,0.000416412,0.00146992,0.0168914,0.00689968,0.000867996,0.000873489,0.000913658,-0.0373208,0.000831451,0.00046814,0.00978878,-0.0198248,0.00132565,0.00069622,-0.00829224
19,8,0,0,0,0,0,0,231.8,254,0,0,0,0,0,0,0,231.8,766,0,0.00141758,0.000378265,0.000592537,0.0160522,0.00804409,0.000410232,0.000530167,0.00171474,0.00891335,0.00071701,0.000773315,0.0108569,-0.0216559,0.00155453,0.00191692,-0.00821594
19,9,0,0,0,0,0,0,231.8,254,0,0,0,0,0,0,0,231.8,766,0,0.000425759,0.000607147,0.000249214,0.0161666,0.00998959,0.000829849,0.00159828,-0.000192604,0.0268043,0.000984039,0.00138367,0.00967434,-0.0207022,0.000715294,-0.000867805,-0.00882629
20,0,0,0,0,0,0,0,231.8,254,0,0,0,0,0,0,0,231.8,766,0,0.00130314,-0.000384674,0.00131733,0.0166626,0.00728115,0.000829849,0.000644607,0.000341454,-0.0706994,0.000297394,0.00126923,0.0108569,-0.0208548,0.000410118,0.00130657,-0.00627045
20,1,0,0,0,0,0,0,231.8,254,0,0,0,0,0,0,0,231.8,766,0,0.00145573,0.00110306,0.00055439,0.0174636,0.00590786,0.000906143,0.00114052,0.00137142,0.0299323,0.000449982,0.000697021,0.0106662,-0.0208548,0.00155453,0.00218395,-0.00936035
20,2,0,0,0,0,0,0,231.8,254,0,0,0,0,0,0,0,231.8,766,0,0.000769082,0.000912323,0.00158436,0.0162429,0.00678524,0.00128761,0.00098793,0.0010281,0.0332893,0.0014418,0.00058258,0.0148242,-0.0207404,0.000906029,0.00153545,-0.00726227
20,3,0,0,0,0,0,0,231.8,254,0,0,0,0,0,0,0,231.8,766,0,0.00141758,0.00106491,0.000592537,0.0156707,0.00205502,0.000410232,0.000949783,-0.000574074,-0.0591409,0.000335541,0.000239258,0.0149005,-0.0210455,0.000715294,0.000925102,-0.0106192
20,4,0,0,0,0,0,0,231.8,254,0,0,0,0,0,0,0,231.8,766,0,0.00145573,-0.00030838,-0.00070446,0.0158996,0.00342831,-0.000772324,0.000720901,0.000150719,0.0430549,0.000564422,-0.00101959,0.010361,-0.021427,0.000104942,-0.000333748,-0.00916962
20,5,0,0,0,0,0,0,231.8,254,0,0,0,0,0,0,0,231.8,766,0,0.000463906,-4.13517e-05,0.000783272,0.0164718,0.00636562,0.000486526,0.000415726,0.000646629,0.0519813,0.00106033,0.0010022,0.0147479,-0.0205115,6.67954e-05,0.000810661,-0.00802521
20,6,0,0,0,0,0,0,231.8,254,0,0,0,0,0,0,0,231.8,766,0,0.0011887,0.000645294,-0.000399284,0.0165863,0.0066708,0.00056282,0.000949783,0.000570335,-0.0575768,0.0002211,-0.000180359,0.0197833,-0.0208167,0.000371971,0.000429192,-0.00669006
20,7,0,0,0,0,0,0,231.8,254,0,0,0,0,0,0,0,231.8,766,0,0.000769082,0.000149383,0.000859566,0.0155944,0.00655636,0.000257645,0.00011055,-0.000459633,0.049578,0.000259247,0.000506287,0.0226443,-0.0211981,0.000829735,0.000886955,-0.00844482
20,8,0,0,0,0,0,0,231.8,254,0,0,0,0,0,0,0,231.8,766,0,0.0011887,0.000797882,0.000401802,0.0163192,0.00762447,0.00102058,0.000530167,0.00076107,0.0649512,0.000488129,0.000773315,0.0265353,-0.0218848,0.000639,0.00168804,-0.00699524
20,9,0,0,0,0,0,0,231.8,254,0,0,0,0,0,0,0,231.8,766,0,0.000578347,7.30893e-05,0.00154621,0.0169296,0.0107525,0.00132576,0.00125496,0.000913658,-0.0640618,0.00140366,0.000353699,0.0225299,-0.0213889,0.00132565,0.00252728,-0.00718597
21,0,0,0,0,0,0,0,231.8,254,0,0,0,0,0,0,0,231.8,766,0,0.000578347,0.00095047,9.66262e-05,0.015747,0.0142239,0.000219498,0.00060646,0.000646629,-0.0188195,0.000335541,0.000925903,0.0219577,-0.0205878,0.000104942,0.00130657,-0.00783447
21,1,0,0,0,0,0,0,231.8,254,0,0,0,0,0,0,0,231.8,766,0,0.00107426,0.00110306,0.000363655,0.0151367,0.0148724,0.000295792,0.000873489,0.000341454,0.000253983,0.00125107,-0.000371094,0.0246661,-0.0211981,0.000906029,8.58689e-05,-0.00909332
21,2,0,0,0,0,0,0,231.8,254,0,0,0,0,0,0,0,231.8,766,0,0.000387612,-4.13517e-05,0.000745125,0.0166244,0.0122403,0.000372085,0.000453873,0.000303307,0.0684608,0.000831451,0.000925903,0.0216906,-0.0208167,0.000639,0.000124016,-0.00787262
21,3,0,0,0,0,0,0,231.8,254,0,0,0,0,0,0,0,231.8,766,0,0.00115055,0.000645294,0.000668831,0.0166626,0.0104473,0.000639114,0.000644607,0.00140957,-0.014547,0.000335541,0.000620727,0.0171511,-0.0205496,0.0012875,0.00153545,-0.00714783
21,4,0,0,0,0,0,0,231.8,254,0,0,0,0,0,0,0,231.8,766,0,0.000578347,0.000340118,0.000897713,0.0164337,0.00876888,0.00105873,0.000339432,0.000837364,-0.0136697,0.000449982,0.00058258,0.0150912,-0.0213126,-4.76455e-05,0.000848808,-0.00886444
21,5,0,0,0,0,0,0,231.8,254,0,0,0,0,0,0,0,231.8,766,0,0.00015873,0.000378265,0.000668831,0.0164718,0.00758633,-4.75312e-05,-0.000194626,-0.000841103,0.08021,0.000373688,-0.000104065,0.0137561,-0.0210837,0.000295677,-0.000219307,-0.00890259
21,6,0,0,0,0,0,0,231.8,254,0,0,0,0,0,0,0,231.8,766,0,0.00168461,0.000340118,-0.000361137,0.0157089,0.00751003,0.000257645,0.00011055,0.000646629,-0.0177132,0.000106659,0.000353699,0.0112384,-0.0211218,0.000906029,0.000772514,-0.00836853
21,7,0,0,0,0,0,0,231.8,254,0,0,0,0,0,0,0,231.8,766,0,0.000769082,0.0012175,0.00154621,0.0167389,0.0053738,0.00205055,0.00209419,0.000608482,-0.0114953,0.000297394,0.000162964,0.0119632,-0.0213507,0.00109676,0.000543633,-0.00894073
21,8,0,0,0,0,0,0,231.8,254,0,0,0,0,0,0,0,231.8,766,0,0.000654641,0.000263824,0.00101215,0.0158233,0.00434383,0.00102058,0.000453873,0.000455895,0.0921882,0.000297394,-0.00140106,0.0172274,-0.0203207,0.000906029,0.000772514,-0.00775818
21,9,0,0,0,0,0,0,231.8,254,0,0,0,0,0,0,0,231.8,766,0,0.0011887,0.000454559,0.000706978,0.0161285,0.0040768,0.00094429,0.000911636,0.000951805,-0.012716,0.000182953,0.00111664,0.0132602,-0.0213507,0.00166897,0.00149731,-0.00890259
22,0,0,0,0,0,0,0,231.8,254,0,0,0,0,0,0,0,231.8,766,0,0.000654641,0.0017897,0.000478096,0.0161285,0.00720486,0.000715408,0.00098793,0.00144772,-0.014547,0.00136551,0.00153625,0.00936916,-0.0213507,0.000715294,0.00069622,-0.00775818
22,1,0,0,0,0,0,0,231.8,254,0,0,0,0,0,0,0,231.8,766,0,0.00168461,0.00167526,0.00108845,0.0171203,0.00937923,0.000753555,-0.000804977,0.000913658,0.0972617,0.00132736,4.85228e-05,0.00864437,-0.0210455,0.00105862,0.00119213,-0.00958923
22,2,0,0,0,0,0,0,231.8,254,0,0,0,0,0,0,0,231.8,766,0,8.2436e-05,-0.000270233,-0.000170403,0.0158615,0.00827297,-4.75312e-05,7.24029e-05,0.000570335,-0.00958794,0.00136551,-0.000142212,0.0104373,-0.0219992,0.000524559,8.58689e-05,-0.00787262
22,3,0,0,0,0,0,0,231.8,254,0,0,0,0,0,0,0,231.8,766,0,0.00107426,0.00140823,0.000630684,0.0159378,0.00854,0.00105873,0.000263138,0.000150719,-0.0499093,0.00117477,0.00058258,0.0115817,-0.0211981,0.000524559,0.00176434,-0.00791077
22,4,0,0,0,0,0,0,231.8,254,0,0,0,0,0,0,0,231.8,766,0,0.0005402,0.00125565,0.00093586,0.0160904,0.00850185,0.000982437,0.000835342,0.000379601,-0.00695579,0.000755157,0.000697021,0.00646999,-0.020397,0.00151638,0.00142101,-0.00878815
22,5,0,0,0,0,0,0,231.8,254,0,0,0,0,0,0,0,231.8,766,0,0.0011887,0.000225677,0.00101215,0.0167007,0.00339016,0.000257645,0.000759048,0.000951805,0.0321449,0.00109848,-2.77711e-05,0.00742367,-0.0204352,0.000982323,0.000772514,-0.00768188
22,6,0,0,0,0,0,0,231.8,254,0,0,0,0,0,0,0,231.8,766,0,0.00137943,0.00106491,0.000401802,0.0161285,0.00335201,0.00163094,0.000720901,0.000989952,0.0531638,0.000793304,0.000849609,0.00612667,-0.0208548,0.00132565,0.00123028,-0.00855927
22,7,0,0,0,0,0,0,231.8,254,0,0,0,0,0,0,0,231.8,766,0,0.000769082,0.000492706,0.000706978,0.0164337,0.00297054,0.000753555,0.000797195,0.00129513,-0.0526177,0.00106033,0.000315552,0.00566891,-0.0205496,0.00136379,0.000543633,-0.00726227
22,8,0,0,0,0,0,0,231.8,254,0,0,0,0,0,0,0,231.8,766,0,-0.000337181,7.30893e-05,0.000401802,0.0159759,0.000300255,0.000295792,7.24029e-05,0.000455895,0.0427116,0.000297394,0.000429993,0.00673702,-0.0212744,0.000562706,0.000124016,-0.00798706
22,9,0,0,0,0,0,0,231.8,254,0,0,0,0,0,0,0,231.8,766,0,0.00115055,0.00106491,-9.41086e-05,0.0162811,0.000223961,-0.000123825,0.000911636,0.00106625,0.0462974,0.00147995,-0.000599976,0.00547817,-0.0223425,0.000448265,0.000848808,-0.00836853
23,0,0,0,0,0,0,0,231.8,254,0,0,0,0,0,0,0,231.8,766,0,0.000845375,0.000645294,-0.000170403,0.0160904,0.000300255,0.00205055,0.000301285,0.000951805,-0.0485741,0.00231918,0.000544433,0.00925472,-0.0202826,0.00117306,0.00069622,-0.00707153
23,1,0,0,0,0,0,0,231.8,254,0,0,0,0,0,0,0,231.8,766,0,0.0011124,0.00129379,0.0010503,0.0170059,0.00262722,0.000600967,0.000911636,0.00110439,0.0512183,0.000793304,0.000887756,0.0112384,-0.0209311,0.000600853,-0.00155445,-0.00844482
23,2,0,0,0,0,0,0,231.8,254,0,0,0,0,0,0,0,231.8,766,0,0.000311318,0.000340118,2.03323e-05,0.0153656,0.000529137,0.000105057,0.000415726,0.00110439,0.0581229,0.0002211,-0.000218506,0.00997951,-0.0219611,0.000944176,0.000925102,-0.00905518
23,3,0,0,0,0,0,0,231.8,254,0,0,0,0,0,0,0,231.8,766,0,0.0005402,0.000492706,-9.41086e-05,0.015747,0.00010952,0.000677261,0.00060646,7.44248e-05,-0.0538766,0.00147995,0.000239258,0.0136798,-0.0216559,0.000677147,0.00069622,-0.00733856
23,4,0,0,0,0,0,0,231.8,254,0,0,0,0,0,0,0,231.8,766,0,0.00130314,0.000378265,0.000668831,0.0163574,0.000338402,0.00113502,0.00011055,0.00140957,0.0509132,0.00125107,0.000925903,0.0137179,-0.0205496,0.000982323,0.00020031,-0.00813965
23,5,0,0,0,0,0,0,231.8,254,0,0,0,0,0,0,0,231.8,766,0,0.000730935,0.000607147,0.000249214,0.0167007,-0.00145451,0.000448379,0.000568314,0.000112572,0.0652564,0.000335541,-0.000142212,0.0134127,-0.0210837,0.000829735,0.00069622,-0.00791077
23,6,0,0,0,0,0,0,231.8,254,0,0,0,0,0,0,0,231.8,766,0,-3.20049e-05,-4.13517e-05,0.000783272,0.0159759,-0.00237003,0.000639114,0.00060646,0.000951805,-0.065397,0.0015181,-0.000447388,0.0164264,-0.0207404,0.00132565,0.00149731,-0.00768188
23,7,0,0,0,0,0,0,231.8,254,0,0,0,0,0,0,0,231.8,766,0,0.0005402,0.0017897,0.000706978,0.0168533,-0.00122562,0.00128761,0.00106422,0.000646629,-0.0222909,0.00159439,0.000544433,0.0139849,-0.0204352,0.000906029,0.000619926,-0.00943665
23,8,0,0,0,0,0,0,231.8,254,0,0,0,0,0,0,0,231.8,766,0,0.000502053,0.000988617,0.00120289,0.0162429,-0.00168339,0.000639114,0.00129311,0.000532188,-0.00409477,0.00147995,-0.000599976,0.014252,-0.020397,-9.49856e-06,0.000772514,-0.00691895
23,9,0,0,0,0,0,0,231.8,254,0,0,0,0,0,0,0,231.8,766,0,0.000692788,0.00198044,0.000974007,0.0169296,-0.000882301,0.000410232,0.00114052,0.00121883,0.0696052,0.000793304,0.00107849,0.0120013,-0.0210074,0.000906029,0.00206951,-0.0102759
24,0,0,0,0,0,0,0,231.8,254,0,0,0,0,0,0,0,231.8,766,0,0.00103611,0.00106491,0.000821419,0.0172729,-0.00126377,0.00166908,0.00110237,0.000303307,-0.0164162,0.00167068,0.00104034,0.0120776,-0.0193289,0.00201229,0.000848808,-0.007453
24,1,0,0,0,0,0,0,231.8,254,0,0,0,0,0,0,0,231.8,766,0,0.000769082,0.000759735,-0.000361137,0.0153274,-0.00175968,0.00140205,-0.000309067,3.62778e-05,-0.0224435,0.000945892,-0.000104065,0.0149005,-0.0218085,0.00025753,0.00058178,-0.00966553
24,2,0,0,0,0,0,0,231.8,254,0,0,0,0,0,0,0,231.8,766,0,0.00103611,-3.20468e-06,0.000325508,0.0163955,0.00144466,0.000448379,-0.000843124,-0.000383339,0.0741065,-0.000274811,1.03759e-05,0.0161212,-0.0213889,0.000791588,-0.000905952,-0.00913147
24,3,0,0,0,0,0,0,231.8,254,0,0,0,0,0,0,0,231.8,766,0,-0.00022274,0.000607147,0.00150806,0.0173111,0.0998257,0.00109688,0.000873489,0.000989952,-0.0218331,0.00147995,0.000353699,0.0176852,-0.0194052,0.00147823,0.00107769,-0.00714783
24,4,0,0,0,0,0,0,231.8,254,0,0,0,0,0,0,0,231.8,766,0,0.00160831,0.000988617,0.00055439,0.0160904,0.639682,0.000791702,0.000873489,0.000608482,-0.017904,0.000602569,0.000201111,0.0122683,-0.0205115,0.00113491,0.00115398,-0.00840668
24,5,0,0,0,0,0,0,231.8,254,0,0,0,0,0,0,0,231.8,766,0,0.000654641,0.000149383,0.000325508,0.0163955,0.843501,0.000982437,0.00159828,0.000570335,0.087458,0.00106033,0.000239258,0.0154345,-0.0192526,0.00147823,0.000772514,-0.00722412
24,6,0,0,0,0,0,0,231.8,254,0,0,0,0,0,0,0,231.8,766,0,0.000235024,0.00117935,0.00146992,0.0157089,0.587382,0.000295792,0.00148384,0.000684776,-0.0182473,0.00102219,0.000353699,0.0135272,-0.0205115,0.000524559,0.00103954,-0.00783447
24,7,0,0,0,0,0,0,231.8,254,0,0,0,0,0,0,0,231.8,766,0,0.0005402,0.00156082,0.000439949,0.0170059,0.472674,-0.000352707,0.00121681,0.000646629,-0.0217568,0.00147995,0.000849609,0.0173419,-0.0208929,0.00025753,0.0015736,-0.00833038
24,8,0,0,0,0,0,0,231.8,254,0,0,0,0,0,0,0,231.8,766,0,-0.000108299,0.00156082,0.00185139,0.0169296,0.315661,0.00113502,-4.2038e-05,0.000799217,0.092913,0.00163254,0.00134552,0.01738,-0.020397,0.00025753,0.000543633,-0.00871185
24,9,0,0,0,0,0,0,231.8,254,0,0,0,0,0,0,0,231.8,766,0,0.000730935,0.00106491,0.000745125,0.0174255,0.198817,-0.000200119,0.000263138,0.000303307,-0.0153481,0.000831451,0.00119293,0.0134127,-0.0207022,0.000753441,0.000429192,-0.0104666
25,0,0,0,0,0,0,0,231.8,254,0,0,0,0,0,0,0,231.8,766,0,0.000654641,0.000645294,0.000249214,0.0167007,0.0902508,0.00056282,-0.000118332,-0.000192604,-0.0567376,0.000678863,0.000124817,0.0151294,-0.0203207,0.00025753,0.000848808,-0.00833038
25,1,0,0,0,0,0,0,231.8,254,0,0,0,0,0,0,0,231.8,766,0,-0.00022274,0.00148453,0.00185139,0.0162811,0.00804409,0.00155464,0.000415726,0.000875511,-0.0111138,0.000640716,0.000239258,0.0184481,-0.0212363,0.000791588,0.00058178,-0.00875
25,2,0,0,0,0,0,0,231.8,254,0,0,0,0,0,0,0,231.8,766,0,0.000769082,0.00125565,0.00055439,0.016777,-0.0627948,0.00124947,0.00110237,0.000150719,0.0503791,0.00132736,0.0010022,0.0205844,-0.0202826,0.00132565,-0.000143013,-0.0103522
25,3,0,0,0,0,0,0,231.8,254,0,0,0,0,0,0,0,231.8,766,0,0.000349465,0.00106491,-5.59617e-05,0.016777,-0.124402,0.00132576,0.00110237,0.000379601,0.184656,-0.000618134,0.000620727,0.0150912,-0.0206641,0.00102047,0.00126843,-0.00844482
25,4,0,0,0,0,0,0,231.8,254,0,0,0,0,0,0,0,231.8,766,0,0.000235024,-3.20468e-06,-9.41086e-05,0.0153656,-0.173841,0.000715408,0.000339432,0.000646629,0.16276,0.00071701,1.03759e-05,0.0119632,-0.0212363,0.000867882,0.000886955,-0.00875
25,5,0,0,0,0,0,0,231.8,254,0,0,0,0,0,0,0,231.8,766,0,0.000997963,0.000607147,0.00116474,0.0169677,-0.205732,0.000600967,0.00152199,0.000989952,0.128313,0.000564422,0.00126923,0.0106662,-0.0206641,0.00113491,0.0010014,-0.00974182
25,6,0,0,0,0,0,0,231.8,254,0,0,0,0,0,0,0,231.8,766,0,0.000845375,0.00232376,0.00177509,0.0171203,-0.205274,0.000982437,0.000759048,0.000150719,-0.0101601,0.00113663,0.00130737,0.0139468,-0.0197104,0.00144009,0.000467339,-0.00981812
25,7,0,0,0,0,0,0,231.8,254,0,0,0,0,0,0,0,231.8,766,0,-0.000146446,-4.13517e-05,0.000668831,0.0164337,0.133166,0.000181351,-0.000614243,-0.000230751,-0.124067,-0.000198517,0.000849609,0.0115054,-0.0202826,0.000295677,0.000734367,-0.00894073
25,8,0,0,0,0,0,0,231.8,254,0,0,0,0,0,0,0,231.8,766,0,-0.000604209,0.000416412,0.000249214,0.0161666,0.43159,0.000867996,0.000568314,-0.000307045,0.00559456,0.000373688,0.000544433,0.00860622,-0.0230292,0.000333824,0.000124016,-0.00894073
25,9,0,0,0,0,0,0,231.8,254,0,0,0,0,0,0,0,231.8,766,0,0.0011887,0.00159897,-0.00020855,0.01651,0.0844906,0.00117317,0.000530167,0.000608482,0.010897,0.00155624,0.00134552,0.0137561,-0.0196722,0.00178341,0.00069622,-0.00920776
26,0,0,0,0,0,0,0,231.8,254,0,0,0,0,0,0,0,231.8,766,0,0.000730935,0.000874176,0.000706978,0.0161285,-0.0219776,0.000639114,0.00114052,-0.000383339,-0.104955,0.00106033,0.00096405,0.0167697,-0.0213507,0.00117306,-6.6719e-05,-0.00928406
26,1,0,0,0,0,0,0,231.8,254,0,0,0,0,0,0,0,231.8,766,0,-0.000260887,0.00018753,0.00055439,0.0165863,-0.130277,-0.000276413,-4.2038e-05,0.00110439,0.0120414,0.000182953,0.000925903,0.0187152,-0.02116,0.00025753,-6.6719e-05,-0.0093985
26,2,0,0,0,0,0,0,231.8,254,0,0,0,0,0,0,0,231.8,766,0,0.000921669,0.00129379,0.000516243,0.016777,-0.198598,0.00136391,0.000339432,-7.81631e-05,0.0297416,0.00128921,0.000811462,0.0195544,-0.0203589,0.00163082,0.00111584,-0.00871185
26,3,0,0,0,0,0,0,231.8,254,0,0,0,0,0,0,0,231.8,766,0,0.000807228,0.000683441,0.00101215,0.016777,-0.249562,0.000906143,0.00102608,0.000494041,-0.101293,0.000984039,0.000658874,0.0192111,-0.0202063,0.000982323,0.000810661,-0.00821594
26,4,0,0,0,0,0,0,231.8,254,0,0,0,0,0,0,0,231.8,766,0,0.00115055,0.000683441,0.00112659,0.0164337,-0.283628,-9.38424e-06,0.000530167,0.000608482,-0.050863,-8.40761e-05,0.0015744,0.0128024,-0.0204352,0.000143089,0.00161175,-0.00993256
26,5,0,0,0,0,0,0,231.8,254,0,0,0,0,0,0,0,231.8,766,0,0.000463906,0.000721588,0.00112659,0.0163192,-0.306287,0.00056282,0.00110237,-0.00106998,-0.0283562,0.000793304,0.000353699,0.0132602,-0.0210074,0.00113491,0.000314751,-0.00791077
26,6,0,0,0,0,0,0,231.8,254,0,0,0,0,0,0,0,231.8,766,0,0.000845375,0.000988617,-0.00032299,0.0160141,-0.318647,0.000448379,0.000530167,-1.86916e-06,0.0473655,0.000144806,0.00149811,0.018677,-0.0202444,0.000906029,-2.8572e-05,-0.00928406
26,7,0,0,0,0,0,0,231.8,254,0,0,0,0,0,0,0,231.8,766,0,0.000730935,0.00117935,0.00093586,0.017044,-0.323529,0.000219498,0.00190346,-0.00011631,-0.0400292,0.00117477,0.00153625,0.0145572,-0.0208548,0.000867882,0.000314751,-0.00913147
26,8,0,0,0,0,0,0,231.8,254,0,0,0,0,0,0,0,231.8,766,0,0.00103611,0.000836029,0.00188953,0.0172729,-0.319562,0.00121132,0.00106422,0.00144772,-0.0335824,0.000793304,0.00104034,0.0124591,-0.019863,0.00102047,0.0015736,-0.00695709
26,9,0,0,0,0,0,0,231.8,254,0,0,0,0,0,0,0,231.8,766,0,-0.00022274,0.000874176,0.00139362,0.0168914,-0.312734,-0.000123825,0.000797195,0.000150719,0.061518,0.00102219,0.000925903,0.0143283,-0.0213126,0.000753441,0.0010014,-0.0102377
27,0,0,0,0,0,0,0,231.8,254,0,0,0,0,0,0,0,231.8,766,0,4.4289e-05,-7.94986e-05,2.03323e-05,0.0163192,-0.29778,0.000105057,-0.000118332,0.000379601,-0.0293099,0.000449982,0.000277405,0.0141375,-0.0196722,0.000410118,0.00142101,-0.0104285
27,1,0,0,0,0,0,0,231.8,254,0,0,0,0,0,0,0,231.8,766,0,0.000349465,0.00102676,0.00143177,0.0162048,-0.280576,0.000333939,0.00133125,-1.86916e-06,-0.0240838,-7.78213e-06,0.000124817,0.0163119,-0.0211981,0.000333824,0.00138287,-0.00760559
27,2,0,0,0,0,0,0,231.8,254,0,0,0,0,0,0,0,231.8,766,0,0.00107426,0.000683441,0.000439949,0.016777,-0.263639,0.000524673,0.00110237,0.000913658,0.0833762,0.000526275,0.00161255,0.0179141,-0.0204352,0.0012875,0.00134472,-0.00936035
27,3,0,0,0,0,0,0,231.8,254,0,0,0,0,0,0,0,231.8,766,0,0.000883522,0.000607147,0.000783272,0.0169677,-0.245252,0.000524673,0.00197975,0.000532188,-0.0203454,0.00109848,0.00149811,0.016083,-0.0192908,0.000944176,0.00134472,-0.00840668
27,4,0,0,0,0,0,0,231.8,254,0,0,0,0,0,0,0,231.8,766,0,0.000997963,0.000797882,0.000401802,0.0154037,-0.22717,0.000295792,0.000377579,0.000188866,-0.0204598,0.000640716,0.000620727,0.0185626,-0.0209692,0.000371971,0.000886955,-0.00947479
27,5,0,0,0,0,0,0,231.8,254,0,0,0,0,0,0,0,231.8,766,0,0.000235024,0.000683441,0.000859566,0.0162811,-0.206075,0.000410232,0.000263138,0.000570335,0.0931037,0.000869598,0.00123108,0.0128787,-0.0210455,0.000982323,0.000963249,-0.0081015
27,6,0,0,0,0,0,0,231.8,254,0,0,0,0,0,0,0,231.8,766,0,0.0005402,0.000683441,0.00116474,0.0164337,-0.184255,0.000486526,0.00102608,0.00106625,-0.0133263,0.00125107,0.00145996,0.010094,-0.0208929,0.00102047,0.000848808,-0.00787262
27,7,0,0,0,0,0,0,231.8,254,0,0,0,0,0,0,0,231.8,766,0,0.000578347,7.30893e-05,0.00055439,0.0168914,-0.163007,0.000753555,0.000911636,0.000188866,-0.0521981,0.00132736,0.000315552,0.0117724,-0.0206641,0.000753441,0.000925102,-0.00985626
27,8,0,0,0,0,0,0,231.8,254,0,0,0,0,0,0,0,231.8,766,0,0.000769082,3.49423e-05,0.00120289,0.0170059,-0.142408,0.000677261,0.00159828,-0.000154457,-0.00707024,0.000144806,0.000773315,0.012192,-0.0194434,0.000982323,0.000886955,-0.00882629
27,9,0,0,0,0,0,0,231.8,254,0,0,0,0,0,0,0,231.8,766,0,0.000769082,0.000149383,0.000859566,0.0161666,-0.113721,0.000753555,0.000568314,0.000684776,0.0327552,0.000373688,0.000391846,0.00669888,-0.0206641,0.0012875,0.00058178,-0.00955109
28,0,0,0,0,0,0,0,231.8,254,0,0,0,0,0,0,0,231.8,766,0,-0.000337181,0.000912323,-0.00032299,0.0161666,-0.0617649,-0.000238266,0.000530167,0.000532188,0.0519813,-0.000312958,0.00115479,0.0113147,-0.021694,0.000181236,4.77219e-05,-0.00916962
28,1,0,0,0,0,0,0,231.8,254,0,0,0,0,0,0,0,231.8,766,0,0.000883522,0.00095047,0.000401802,0.0152893,-0.0593616,6.69097e-05,0.000759048,-0.000535927,-0.0494134,0.000755157,0.000277405,0.0118869,-0.0210074,0.000524559,4.77219e-05,-0.00905518
28,2,0,0,0,0,0,0,231.8,254,0,0,0,0,0,0,0,231.8,766,0,0.000502053,-0.000422821,0.000974007,0.017044,-0.0681736,0.00140205,0.000949783,0.000341454,0.0475181,0.000411835,0.00168884,0.0135272,-0.0204352,0.00174526,0.00149731,-0.00901703
28,3,0,0,0,0,0,0,231.8,254,0,0,0,0,0,0,0,231.8,766,0,0.00122685,0.000988617,0.00139362,0.016777,-0.0506641,0.000524673,0.00114052,0.00121883,0.0469077,0.000945892,0.00168884,0.0148242,-0.0203589,0.00140194,0.00103954,-0.00779633
28,4,0,0,0,0,0,0,231.8,254,0,0,0,0,0,0,0,231.8,766,0,0.000349465,0.000149383,0.000706978,0.0160904,-0.0440265,-4.75312e-05,0.000759048,-0.000268898,-0.0451028,0.000907745,0.00115479,0.0165026,-0.0204733,-0.000352821,0.00195507,-0.00901703
28,5,0,0,0,0,0,0,231.8,254,0,0,0,0,0,0,0,231.8,766,0,-0.000527916,0.00018753,0.000668831,0.015213,-0.0289585,-9.38424e-06,0.000797195,0.000227013,0.0538123,0.0002211,-0.000561829,0.018677,-0.021694,6.67954e-05,-0.000753365,-0.00993256
28,6,0,0,0,0,0,0,231.8,254,0,0,0,0,0,0,0,231.8,766,0,0.000807228,0.000340118,0.000821419,0.0164337,-0.0156833,0.000639114,0.00121681,0.000303307,0.0618232,0.00136551,0.000315552,0.0164264,-0.0210837,0.000181236,0.000810661,-0.00859741
28,7,0,0,0,0,0,0,231.8,254,0,0,0,0,0,0,0,231.8,766,0,-0.000146446,-0.000155793,5.84793e-05,0.0156326,-0.00790134,0.00102058,0.000682754,-1.86916e-06,-0.0494515,0.000488129,0.00115479,0.015549,-0.0215033,0.00124935,0.000886955,-0.00813965
28,8,0,0,0,0,0,0,231.8,254,0,0,0,0,0,0,0,231.8,766,0,0.00015873,-7.94986e-05,0.000630684,0.0165863,0.00308498,0.00132576,0.00144569,0.00106625,0.0547279,0.00113663,0.000620727,0.0159304,-0.0205496,0.00136379,0.00115398,-0.00821594
28,9,0,0,0,0,0,0,231.8,254,0,0,0,0,0,0,0,231.8,766,0,-3.20049e-05,0.000645294,0.000745125,0.0174255,0.0128125,0.000906143,0.000835342,0.000379601,0.0678123,-0.000618134,0.00195587,0.0146716,-0.0204352,0.000944176,0.00180248,-0.00871185
29,0,0,0,0,0,0,0,231.8,254,0,0,0,0,0,0,0,231.8,766,0,0.000235024,0.000988617,0.000439949,0.0157852,0.0227688,0.000219498,-3.89107e-06,0.000227013,-0.0624596,0.00170883,0.00046814,0.0141375,-0.0210837,0.000600853,0.00134472,-0.00928406
29,1,0,0,0,0,0,0,231.8,254,0,0,0,0,0,0,0,231.8,766,0,0.00107426,-3.20468e-06,0.00127918,0.0171585,0.0319241,0.000791702,0.000911636,0.000989952,-0.0181329,0.000678863,0.000735168,0.0165408,-0.0202826,-0.000390968,0.000352898,-0.00840668
29,2,0,0,0,0,0,0,231.8,254,0,0,0,0,0,0,0,231.8,766,0,0.000387612,0.00106491,0.00101215,0.0165863,0.0381039,0.000372085,0.000759048,-0.000383339,0.00212318,0.000678863,0.000201111,0.0138324,-0.0202063,0.00117306,0.000886955,-0.0101233
29,3,0,0,0,0,0,0,231.8,254,0,0,0,0,0,0,0,231.8,766,0,0.000654641,0.000378265,-0.000284843,0.0158233,0.0431775,0.000639114,0.000148697,0.000227013,0.0747932,0.000449982,0.000162964,0.00978878,-0.0213507,0.000448265,0.000848808,-0.00890259
29,4,0,0,0,0,0,0,231.8,254,0,0,0,0,0,0,0,231.8,766,0,0.000616494,0.000874176,0.000363655,0.0163574,0.0486706,0.000829849,0.00144569,0.000837364,-0.0149667,0.000678863,0.00111664,0.0120395,-0.0205496,0.00132565,0.00187878,-0.00798706
29,5,0,0,0,0,0,0,231.8,254,0,0,0,0,0,0,0,231.8,766,0,0.0018372,0.000530853,0.00146992,0.0176925,0.0544308,0.00159279,0.000911636,0.000837364,-0.0180566,0.000144806,0.00130737,0.0177233,-0.0202063,0.00124935,-6.6719e-05,-0.00844482
29,6,0,0,0,0,0,0,231.8,254,0,0,0,0,0,0,0,231.8,766,0,0.00015873,0.000340118,-0.000246697,0.0165481,0.0585507,0.000753555,0.000759048,0.000532188,0.0749458,0.000297394,0.00126923,0.0146334,-0.0211218,0.000944176,0.000658073,-0.00836853
29,7,0,0,0,0,0,0,231.8,254,0,0,0,0,0,0,0,231.8,766,0,0.00130314,0.000225677,-0.000513725,0.0154419,0.0605343,0.000105057,-3.89107e-06,-0.000154457,-0.0183236,0.00106033,-0.000142212,0.0136416,-0.0213889,0.000906029,0.000543633,-0.00871185
29,8,0,0,0,0,0,0,231.8,254,0,0,0,0,0,0,0,231.8,766,0,0.000883522,0.000759735,0.000859566,0.0166626,0.0600003,0.000372085,0.00102608,0.00133327,-0.0156152,0.000831451,-2.77711e-05,0.0226443,-0.0209311,-0.000123939,0.000848808,-0.00707153
29,9,0,0,0,0,0,0,231.8,254,0,0,0,0,0,0,0,231.8,766,0,0.000959816,0.00110306,0.00185139,0.0165481,0.0642727,0.00109688,0.00140755,0.00144772,0.0905479,0.00140366,0.00046814,0.0276797,-0.0204733,0.00254635,0.00237469,-0.00749115
30,0,0,0,0,0,0,0,231.8,254,0,0,0,0,0,0,0,231.8,766,0,0.00115055,0.000836029,0.00101215,0.016777,0.0640438,0.00094429,0.00049202,0.000989952,-0.0159203,0.00125107,0.000124817,0.0265353,-0.0217322,0.000639,0.00115398,-0.00848297
30,1,0,0,0,0,0,0,231.8,254,0,0,0,0,0,0,0,231.8,766,0,-0.00071865,0.000912323,0.000287361,0.0159378,0.0670575,0.000219498,0.000568314,7.44248e-05,-0.0199639,0.000869598,-0.000180359,0.0258487,-0.0206259,0.000715294,0.000543633,-0.00787262
30,2,0,0,0,0,0,0,231.8,254,0,0,0,0,0,0,0,231.8,766,0,0.000616494,0.000263824,-0.000284843,0.0159378,0.0649975,0.000105057,0.00098793,0.000646629,0.0940955,0.000564422,-0.000561829,0.0161975,-0.0209692,0.000791588,0.00115398,-0.00886444
30,3,0,0,0,0,0,0,231.8,254,0,0,0,0,0,0,0,231.8,766,0,0.000578347,3.49423e-05,9.66262e-05,0.0168914,0.0659131,0.00102058,0.00205605,0.00106625,-0.0138223,0.00109848,0.0010022,0.0144809,-0.0200919,0.00182156,0.00145916,-0.00791077
30,4,0,0,0,0,0,0,231.8,254,0,0,0,0,0,0,0,231.8,766,0,0.000921669,0.000492706,0.000668831,0.0159378,0.0658368,0.00136391,0.000835342,0.000684776,-0.0559747,0.000869598,0.00058258,0.0117343,-0.0207404,0.000944176,0.00103954,-0.00779633
30,5,0,0,0,0,0,0,231.8,254,0,0,0,0,0,0,0,231.8,766,0,0.000311318,0.00140823,0.00116474,0.0167389,0.0643872,0.00124947,0.00102608,0.000951805,-0.0101601,0.00132736,0.000887756,0.0137942,-0.0202063,0.00136379,0.00180248,-0.00867371
30,6,0,0,0,0,0,0,231.8,254,0,0,0,0,0,0,0,231.8,766,0,0.000616494,0.000263824,0.00093586,0.0164718,0.0641583,0.000639114,0.00125496,0.0010281,0.0341666,0.00109848,0.000239258,0.0155871,-0.0209692,0.000600853,0.00153545,-0.00730042
30,7,0,0,0,0,0,0,231.8,254,0,0,0,0,0,0,0,231.8,766,0,0.00137943,0.00117935,0.000706978,0.0156326,0.0616024,0.00140205,0.000377579,0.000532188,0.0552238,-8.40761e-05,0.000162964,0.0197451,-0.0203589,0.000715294,0.00191692,-0.00936035
30,8,0,0,0,0,0,0,231.8,254,0,0,0,0,0,0,0,231.8,766,0,0.000616494,0.000492706,-0.000246697,0.0160522,0.0566052,-0.000505295,0.000301285,-0.000154457,-0.0576531,0.00113663,0.000506287,0.0206225,-0.0202826,0.000562706,0.00115398,-0.00833038
30,9,0,0,0,0,0,0,231.8,254,0,0,0,0,0,0,0,231.8,766,0,0.0011124,0.00140823,0.00131733,0.0168151,0.0561093,0.00121132,0.000377579,0.00110439,0.0414146,0.00174698,0.000620727,0.0143283,-0.0207785,0.00113491,0.00107769,-0.00833038
31,0,0,0,0,0,0,0,231.8,254,0,0,0,0,0,0,0,231.8,766,0,0.000349465,0.000912323,0.000478096,0.017044,0.0585888,0.00155464,0.00060646,0.000608482,0.0437034,0.0014418,0.000315552,0.00856808,-0.019863,0.0018597,0.00252728,-0.00783447
31,1,0,0,0,0,0,0,231.8,254,0,0,0,0,0,0,0,231.8,766,0,0.00115055,0.000340118,0.000974007,0.0158233,0.0545834,0.00128761,0.00060646,0.000227013,-0.0535332,0.00132736,0.000239258,0.00589779,-0.0205496,0.00105862,0.00145916,-0.00703339
31,2,0,0,0,0,0,0,231.8,254,0,0,0,0,0,0,0,231.8,766,0,0.000463906,0.000492706,-0.000742607,0.0163574,0.0546597,0.000295792,0.000148697,0.000455895,0.0483573,-8.40761e-05,1.03759e-05,0.0142138,-0.0211218,-4.76455e-05,0.000886955,-0.00943665
31,3,0,0,0,0,0,0,231.8,254,0,0,0,0,0,0,0,231.8,766,0,0.000730935,0.000492706,-9.41086e-05,0.0157852,0.0503491,0.000639114,0.000682754,0.000951805,0.0565589,0.00113663,-6.59181e-05,0.0156634,-0.0210455,0.00140194,0.00149731,-0.00730042
31,4,0,0,0,0,0,0,231.8,254,0,0,0,0,0,0,0,231.8,766,0,0.00141758,0.000454559,0.00017292,0.0162048,0.0502728,0.000448379,-0.000194626,0.000608482,-0.0572717,0.00140366,0.00046814,0.0127261,-0.0205496,0.000295677,0.000848808,-0.00722412
31,5,0,0,0,0,0,0,231.8,254,0,0,0,0,0,0,0,231.8,766,0,0.000311318,0.00117935,0.000401802,0.0160522,0.0467633,0.000257645,0.000148697,0.000150719,0.0492728,0.000526275,1.03759e-05,0.0154727,-0.0215033,0.0012112,0.000543633,-0.00943665
31,6,0,0,0,0,0,0,231.8,254,0,0,0,0,0,0,0,231.8,766,0,0.00107426,0.00198044,0.000859566,0.0161285,0.0451992,-4.75312e-05,0.000263138,0.000913658,0.0644553,0.00113663,-6.59181e-05,0.0178759,-0.0208929,0.000524559,0.000543633,-0.007453
31,7,0,0,0,0,0,0,231.8,254,0,0,0,0,0,0,0,231.8,766,0,4.4289e-05,0.000607147,0.000745125,0.016777,0.0436734,0.00178352,0.000682754,0.000379601,-0.0679147,0.00163254,0.000925903,0.0131457,-0.0211981,0.00147823,0.00153545,-0.00714783
31,8,0,0,0,0,0,0,231.8,254,0,0,0,0,0,0,0,231.8,766,0,0.00153202,0.000607147,9.66262e-05,0.0163192,0.0447415,0.000448379,0.000644607,0.000684776,-0.0245034,0.000869598,0.000315552,0.0126879,-0.0198248,0.000486412,0.000734367,-0.010047
31,9,0,0,0,0,0,0,231.8,254,0,0,0,0,0,0,0,231.8,766,0,0.000654641,0.000988617,0.00108845,0.0162429,0.0442074,0.000715408,0.000720901,0.000227013,0.000940628,0.00117477,-2.77711e-05,0.0121157,-0.0205115,0.000524559,0.00161175,-0.00806335
32,0,0,0,0,0,0,0,231.8,254,0,0,0,0,0,0,0,231.8,766,0,0.000730935,0.000759735,0.00108845,0.0173874,0.0424527,0.00182167,0.00114052,0.000951805,0.131441,0.00071701,0.00123108,0.0143664,-0.020397,0.0018597,0.00237469,-0.00791077
32,1,0,0,0,0,0,0,231.8,254,0,0,0,0,0,0,0,231.8,766,0,0.0011887,0.000759735,-0.000132256,0.0162048,0.0368832,0.00178352,-8.0185e-05,0.00106625,0.186144,0.00197586,0.000811462,0.0128024,-0.0213126,0.00136379,0.00058178,-0.00772003
32,2,0,0,0,0,0,0,231.8,254,0,0,0,0,0,0,0,231.8,766,0,0.000616494,0.000530853,-0.000284843,0.0153274,0.0328015,0.000105057,0.000186844,0.000722923,0.148417,-7.78213e-06,0.000429993,0.0148242,-0.0215796,-0.000467262,0.00149731,-0.00890259
32,3,0,0,0,0,0,0,231.8,254,0,0,0,0,0,0,0,231.8,766,0,0.000311318,0.00129379,0.00166065,0.0173111,0.0306652,0.0014402,0.00159828,0.000455895,0.0797523,0.00125107,0.000544433,0.0158541,-0.0208167,0.000791588,0.0010014,-0.00791077
32,4,0,0,0,0,0,0,231.8,254,0,0,0,0,0,0,0,231.8,766,0,0.000387612,0.000759735,0.00131733,0.0165481,0.0275753,0.00147835,0.00110237,0.000722923,-0.0995004,0.00132736,0.000735168,0.0187152,-0.0195197,0.00178341,0.00195507,-0.00875
32,5,0,0,0,0,0,0,231.8,254,0,0,0,0,0,0,0,231.8,766,0,0.000311318,0.000569,-0.00020855,0.0157852,0.0221203,0.000677261,0.00011055,0.000837364,-0.0717675,6.85118e-05,0.000620727,0.0175326,-0.0225714,0.000867882,0.000925102,-0.00901703
32,6,0,0,0,0,0,0,231.8,254,0,0,0,0,0,0,0,231.8,766,0,-0.000108299,0.00018753,0.000287361,0.0163192,0.0245999,0.000448379,0.000377579,-0.000726662,0.0445808,0.00109848,-0.00140106,0.018143,-0.0200919,0.000600853,-0.00018116,-0.00760559
32,7,0,0,0,0,0,0,231.8,254,0,0,0,0,0,0,0,231.8,766,0,0.0005402,7.30893e-05,0.000897713,0.0164718,0.0211666,0.000524673,-0.000194626,0.000722923,-0.0679147,0.00109848,0.000315552,0.0200885,-0.0217322,0.0012875,0.00145916,-0.00768188
32,8,0,0,0,0,0,0,231.8,254,0,0,0,0,0,0,0,231.8,766,0,0.000387612,0.000874176,-0.000246697,0.0164718,0.016856,0.00132576,3.42559e-05,0.000494041,-0.0649773,0.000984039,0.000773315,0.0218432,-0.0207404,0.00124935,-0.00056263,-0.00852112
32,9,0,0,0,0,0,0,231.8,254,0,0,0,0,0,0,0,231.8,766,0,-0.000184593,0.00156082,0.000363655,0.0150604,0.0163983,0.00117317,0.000415726,0.0010281,0.0585044,0.00113663,-0.000714417,0.0149768,-0.0214651,0.00124935,0.00119213,-0.00821594
33,0,0,0,0,0,0,0,231.8,254,0,0,0,0,0,0,0,231.8,766,0,0.00107426,0.000836029,0.000783272,0.0167389,0.0139187,0.000181351,0.00049202,0.000303307,-0.0502908,0.00174698,0.00046814,0.00441006,-0.0204733,0.000944176,0.000543633,-0.00836853
33,1,0,0,0,0,0,0,231.8,254,0,0,0,0,0,0,0,231.8,766,0,0.000845375,0.000874176,0.000745125,0.0161285,0.012164,0.00109688,0.00117867,0.000951805,-0.0871407,0.00147995,0.000697021,0.00650814,-0.0211981,0.00170712,0.00149731,-0.00768188
33,2,0,0,0,0,0,0,231.8,254,0,0,0,0,0,0,0,231.8,766,0,0.000196877,7.30893e-05,0.000249214,0.0159759,0.0108288,0.000639114,-0.000919418,0.00118069,-0.0380837,-4.59291e-05,0.000620727,0.010895,-0.0215796,-0.000200233,0.000352898,-0.00852112
33,3,0,0,0,0,0,0,231.8,254,0,0,0,0,0,0,0,231.8,766,0,0.000235024,0.00106491,0.000745125,0.0163574,0.012164,0.00124947,0.000339432,-0.000307045,0.00925667,0.00106033,1.03759e-05,0.0118487,-0.0210074,0.00136379,8.58689e-05,-0.00936035
33,4,0,0,0,0,0,0,231.8,254,0,0,0,0,0,0,0,231.8,766,0,0.000616494,-0.000232087,-9.41086e-05,0.0158996,0.0101803,0.00117317,0.000949783,-4.00161e-05,0.026995,0.0002211,-0.000371094,0.0123065,-0.0210074,0.00113491,0.000505486,-0.00875
33,5,0,0,0,0,0,0,231.8,254,0,0,0,0,0,0,0,231.8,766,0,0.000235024,0.000836029,0.000630684,0.0162429,0.00953182,0.000791702,0.00106422,0.000532188,-0.0705468,0.000373688,0.000773315,0.00856808,-0.0212363,0.00109676,0.00153545,-0.00970367
33,6,0,0,0,0,0,0,231.8,254,0,0,0,0,0,0,0,231.8,766,0,6.14207e-06,-0.000155793,0.000439949,0.0156326,0.0122403,0.00109688,0.000186844,0.000150719,0.0283683,0.00109848,-0.000447388,0.00944546,-0.02013,0.000715294,-0.000143013,-0.00886444
33,7,0,0,0,0,0,0,231.8,254,0,0,0,0,0,0,0,231.8,766,0,0.00130314,0.00156082,0.000668831,0.0163192,0.0120877,0.000791702,0.0013694,0.00137142,0.0339759,0.00109848,0.00107849,0.0109332,-0.0205115,0.00102047,0.0015736,-0.00947479
33,8,0,0,0,0,0,0,231.8,254,0,0,0,0,0,0,0,231.8,766,0,0.00168461,0.000149383,0.000630684,0.0160904,0.0114392,0.00102058,0.00171272,0.00076107,-0.0588357,0.000602569,0.00123108,0.00734737,-0.0195197,0.00178341,0.00138287,-0.00897888
33,9,0,0,0,0,0,0,231.8,254,0,0,0,0,0,0,0,231.8,766,0,0.000959816,-0.000232087,0.000363655,0.0145263,0.00697597,2.87627e-05,-0.000614243,-0.000268898,0.0434364,0.000602569,0.000124817,0.0102084,-0.0215796,-0.00023838,-0.000905952,-0.00829224
34,0,0,0,0,0,0,0,231.8,254,0,0,0,0,0,0,0,231.8,766,0,0.000387612,3.49423e-05,-0.000513725,0.016777,0.0109051,0.000791702,-0.000461655,0.000150719,0.0523627,0.000755157,0.000277405,0.0120395,-0.0221136,0.000600853,-6.6719e-05,-0.00924591
34,1,0,0,0,0,0,0,231.8,254,0,0,0,0,0,0,0,231.8,766,0,0.00015873,0.00018753,0.000974007,0.0155182,0.0140713,0.00136391,0.000224991,0.000494041,-0.0572717,0.000831451,0.000811462,0.0140612,-0.0200919,0.00136379,0.00020031,-0.00985626
34,2,0,0,0,0,0,0,231.8,254,0,0,0,0,0,0,0,231.8,766,0,8.2436e-05,0.000530853,0.000897713,0.0160141,0.0103329,0.000181351,0.00049202,7.44248e-05,0.0505698,3.03648e-05,-0.000180359,0.0198977,-0.0202826,0.000486412,0.000276604,-0.00886444
34,3,0,0,0,0,0,0,231.8,254,0,0,0,0,0,0,0,231.8,766,0,0.000196877,0.000721588,0.0010503,0.0164337,0.00998959,0.00056282,0.000530167,0.000951805,0.0640739,0.000640716,0.00153625,0.0161212,-0.0200537,0.0012875,0.00115398,-0.00928406
34,4,0,0,0,0,0,0,231.8,254,0,0,0,0,0,0,0,231.8,766,0,0.000273171,0.000645294,0.00017292,0.0157852,0.0127743,0.00117317,0.00182716,0.0010281,-0.0644051,0.000411835,0.000620727,0.0154727,-0.0213507,0.000982323,0.00164989,-0.00848297
34,5,0,0,0,0,0,0,231.8,254,0,0,0,0,0,0,0,231.8,766,0,0.000692788,0.000301971,0.000401802,0.0155563,0.0109814,0.00056282,-8.0185e-05,0.000608482,-0.0191628,-0.000198517,-0.000523682,0.0149386,-0.0201682,0.0012112,0.0015736,-0.00905518
34,6,0,0,0,0,0,0,231.8,254,0,0,0,0,0,0,0,231.8,766,0,0.000387612,3.49423e-05,0.000783272,0.0159378,0.0107907,-9.38424e-06,0.000530167,0.000341454,-0.000165634,0.00132736,0.000697021,0.011925,-0.0208929,0.000639,0.00115398,-0.00916962
34,7,0,0,0,0,0,0,231.8,254,0,0,0,0,0,0,0,231.8,766,0,0.000463906,-7.94986e-05,0.00093586,0.0161666,0.0103329,0.00117317,0.000224991,-0.000230751,0.0703681,0.00136551,0.000773315,0.0141757,-0.0220374,0.000677147,0.00107769,-0.00840668
34,8,0,0,0,0,0,0,231.8,254,0,0,0,0,0,0,0,231.8,766,0,0.000692788,0.000225677,0.00127918,0.0164718,0.0126217,0.00140205,0.000873489,0.000303307,-0.0152337,0.000907745,0.000429993,0.0181048,-0.0196722,0.00113491,0.00229839,-0.00836853
34,9,0,0,0,0,0,0,231.8,254,0,0,0,0,0,0,0,231.8,766,0,0.000196877,-4.13517e-05,0.000897713,0.0163574,0.00937923,0.000639114,0.000720901,0.000150719,-0.0136315,0.00102219,-0.000599976,0.0204699,-0.0213126,0.000333824,-0.000143013,-0.00840668
35,0,0,0,0,0,0,0,231.8,254,0,0,0,0,0,0,0,231.8,766,0,0.00103611,0.000912323,0.00139362,0.0170059,0.011401,0.00140205,0.000453873,0.00148586,0.078913,0.00163254,0.000544433,0.0179522,-0.02013,0.00163082,0.000619926,-0.00878815
35,1,0,0,0,0,0,0,231.8,254,0,0,0,0,0,0,0,231.8,766,0,-0.000146446,-0.000460968,5.84793e-05,0.0153656,0.00915035,0.000219498,0.000682754,-0.000154457,-0.0170647,0.000831451,0.000391846,0.0113528,-0.021427,0.000295677,4.77219e-05,-0.00821594
35,2,0,0,0,0,0,0,231.8,254,0,0,0,0,0,0,0,231.8,766,0,0.00126499,3.49423e-05,0.000706978,0.0167007,0.00926479,0.00159279,0.00178902,0.00163845,-0.0108086,0.00197586,-0.000447388,0.0163119,-0.0213126,0.000982323,0.000124016,-0.00791077
35,3,0,0,0,0,0,0,231.8,254,0,0,0,0,0,0,0,231.8,766,0,0.00122685,0.000492706,0.000287361,0.0165481,0.00709042,0.000486526,0.00140755,0.000303307,0.0911964,0.00113663,0.00134552,0.0154345,-0.0202826,0.00166897,0.000352898,-0.00833038
35,4,0,0,0,0,0,0,231.8,254,0,0,0,0,0,0,0,231.8,766,0,0.000349465,0.000301971,0.000592537,0.0155944,0.00770077,0.000639114,0.00163643,0.000303307,-0.012716,3.03648e-05,-0.000332947,0.0141757,-0.0217703,0.000524559,0.000543633,-0.00871185
35,5,0,0,0,0,0,0,231.8,254,0,0,0,0,0,0,0,231.8,766,0,0.00130314,0.000301971,0.00173695,0.0171585,0.00792965,0.000982437,0.00098793,0.000608482,-0.0149667,0.00132736,0.00149811,0.0176471,-0.0202826,0.00124935,0.000963249,-0.00928406
35,6,0,0,0,0,0,0,231.8,254,0,0,0,0,0,0,0,231.8,766,0,0.000883522,0.000454559,0.000859566,0.0161666,0.00621304,-4.75312e-05,0.00125496,0.000532188,0.0980247,0.000678863,0.000162964,0.011391,-0.0219611,0.00113491,0.000505486,-0.00871185
35,7,0,0,0,0,0,0,231.8,254,0,0,0,0,0,0,0,231.8,766,0,-0.000146446,-3.20468e-06,0.000897713,0.0157089,0.00701412,0.00056282,0.000224991,0.000150719,-0.0106179,3.03648e-05,0.000849609,0.0155108,-0.0209692,0.000524559,0.00103954,-0.00882629
35,8,0,0,0,0,0,0,231.8,254,0,0,0,0,0,0,0,231.8,766,0,0.000349465,0.00095047,0.000783272,0.0170059,0.010104,0.00109688,0.000911636,-0.000459633,-0.0503289,0.00117477,0.00104034,0.0277942,-0.0205496,0.000906029,0.00138287,-0.00882629
35,9,0,0,0,0,0,0,231.8,254,0,0,0,0,0,0,0,231.8,766,0,0.00103611,0.000797882,0.00139362,0.0155563,0.0105618,0.00109688,0.000682754,0.000379601,-0.00691765,0.000793304,0.000124817,0.0214236,-0.0206641,0.000715294,-0.000677071,-0.00894073
36,0,0,0,0,0,0,0,231.8,254,0,0,0,0,0,0,0,231.8,766,0,0.000769082,0.00110306,0.000668831,0.017044,0.00693783,0.00117317,0.00117867,0.000913658,0.0339378,0.00117477,0.0015744,0.0179141,-0.0208548,0.00155453,0.00210766,-0.00901703
36,1,0,0,0,0,0,0,231.8,254,0,0,0,0,0,0,0,231.8,766,0,0.000883522,0.000874176,2.03323e-05,0.0157852,0.00689968,0.000829849,0.000873489,0.000875511,0.0543464,-4.59291e-05,0.00123108,0.0136416,-0.0210074,0.0012112,0.000886955,-0.00821594
36,2,0,0,0,0,0,0,231.8,254,0,0,0,0,0,0,0,231.8,766,0,0.000692788,0.00102676,0.00127918,0.0163192,0.00499233,0.000867996,-0.000194626,0.000112572,-0.0521218,0.00136551,0.000162964,0.0113147,-0.0196341,0.000906029,0.00145916,-0.00829224
36,3,0,0,0,0,0,0,231.8,254,0,0,0,0,0,0,0,231.8,766,0,0.0005402,0.000378265,0.000783272,0.015747,0.00503048,-9.38424e-06,0.000339432,0.00026516,0.0438941,0.000297394,8.66698e-05,0.0142901,-0.021427,0.000982323,-0.000143013,-0.00867371
36,4,0,0,0,0,0,0,231.8,254,0,0,0,0,0,0,0,231.8,766,0,0.000921669,0.0011412,0.00108845,0.0168533,0.0104855,0.00117317,0.000530167,-0.000421486,0.0466026,0.00170883,8.66698e-05,0.0135653,-0.0206259,0.00132565,0.00164989,-0.00867371
36,5,0,0,0,0,0,0,231.8,254,0,0,0,0,0,0,0,231.8,766,0,0.000692788,0.000263824,0.00154621,0.0168914,0.0118206,0.000829849,0.00121681,-0.000230751,-0.049833,-0.000122223,0.00210846,0.0115054,-0.0212744,0.000600853,0.00153545,-0.00924591
36,6,0,0,0,0,0,0,231.8,254,0,0,0,0,0,0,0,231.8,766,0,0.000463906,3.49423e-05,0.000516243,0.015213,0.00998959,0.000143204,0.000873489,0.000532188,0.0498069,0.000640716,0.000315552,0.0082629,-0.0199393,0.000219383,-2.8572e-05,-0.00943665
36,7,0,0,0,0,0,0,231.8,254,0,0,0,0,0,0,0,231.8,766,0,0.000578347,0.000340118,0.000516243,0.0163574,0.0130032,0.000982437,0.00098793,0.00133327,0.0589622,0.000144806,0.00134552,0.0101702,-0.0210455,0.00147823,0.00119213,-0.00863556
36,8,0,0,0,0,0,0,231.8,254,0,0,0,0,0,0,0,231.8,766,0,0.000845375,0.000912323,0.000859566,0.0155944,0.0104092,0.000791702,0.00102608,0.000188866,-0.0541817,0.000755157,0.000239258,0.0171893,-0.0215033,0.000143089,0.00134472,-0.00867371
36,9,0,0,0,0,0,0,231.8,254,0,0,0,0,0,0,0,231.8,766,0,0.00126499,0.000759735,0.000439949,0.0160141,0.00850185,-4.75312e-05,0.00102608,0.000379601,0.0514472,0.00125107,0.0010022,0.0219195,-0.0215414,0.000562706,0.00020031,-0.00821594
37,0,0,0,0,0,0,0,231.8,254,0,0,0,0,0,0,0,231.8,766,0,0.00187534,0.000530853,0.00112659,0.0169296,0.00930294,0.00132576,0.00178902,0.000989952,0.0652183,0.00159439,0.000925903,0.0187533,-0.0213126,0.00124935,0.00130657,-0.00783447
37,1,0,0,0,0,0,0,231.8,254,0,0,0,0,0,0,0,231.8,766,0,0.000769082,0.000263824,0.000745125,0.0161666,0.00808224,0.000677261,0.0013694,0.000532188,-0.0660073,0.000907745,0.000391846,0.0141757,-0.0212744,0.000944176,0.00153545,-0.00791077
37,2,0,0,0,0,0,0,231.8,254,0,0,0,0,0,0,0,231.8,766,0,0.00198978,0.000836029,0.000592537,0.0161285,0.00758633,0.000715408,0.000873489,0.000799217,-0.0216805,0.000259247,0.00104034,0.00852993,-0.0205115,0.000791588,0.00134472,-0.00707153
37,3,0,0,0,0,0,0,231.8,254,0,0,0,0,0,0,0,231.8,766,0,0.000807228,0.000721588,0.000974007,0.0155563,0.00854,0.000410232,0.000148697,-0.000230751,0.00155098,0.000907745,0.00107849,0.00868252,-0.020397,0.000600853,0.00184063,-0.0100851
37,4,0,0,0,0,0,0,231.8,254,0,0,0,0,0,0,0,231.8,766,0,0.000502053,-0.000384674,0.000630684,0.0161285,0.0133847,0.000105057,0.000873489,-1.86916e-06,0.13167,0.000945892,0.000620727,0.0162356,-0.0211218,0.000524559,0.000467339,-0.00714783
37,5,0,0,0,0,0,0,231.8,254,0,0,0,0,0,0,0,231.8,766,0,0.000654641,0.000607147,0.00124104,0.0171585,0.00720486,0.000982437,0.000568314,0.000227013,0.184847,0.00189957,0.00172699,0.0230258,-0.0207404,0.000982323,0.00210766,-0.00867371
37,6,0,0,0,0,0,0,231.8,254,0,0,0,0,0,0,0,231.8,766,0,0.00137943,0.00125565,-0.000551872,0.0165481,0.00617489,0.00056282,0.000873489,0.000989952,0.148035,0.000564422,-0.000218506,0.0235598,-0.0205496,0.000219383,0.00058178,-0.00875
37,7,0,0,0,0,0,0,231.8,254,0,0,0,0,0,0,0,231.8,766,0,0.000311318,7.30893e-05,0.000439949,0.0154037,0.00411495,-0.000123825,0.00125496,-0.000345192,0.0811256,0.000564422,-0.000638123,0.0198977,-0.0226859,0.000562706,0.000619926,-0.00821594
37,8,0,0,0,0,0,0,231.8,254,0,0,0,0,0,0,0,231.8,766,0,0.000730935,0.000225677,0.00112659,0.0163574,0.00556454,0.000448379,-4.2038e-05,0.00106625,-0.0993478,0.00117477,0.000544433,0.0189822,-0.0213889,0.00147823,0.00123028,-0.00833038
37,9,0,0,0,0,0,0,231.8,254,0,0,0,0,0,0,0,231.8,766,0,0.00160831,0.00129379,0.00146992,0.0169677,0.00556454,0.000600967,0.00102608,0.00110439,-0.0707757,0.000869598,4.85228e-05,0.0202411,-0.022457,0.000753441,0.00161175,-0.00798706
38,0,0,0,0,0,0,0,231.8,254,0,0,0,0,0,0,0,231.8,766,0,0.00137943,0.000912323,0.00112659,0.0165863,0.00342831,0.00105873,0.000911636,0.000379601,0.0453056,0.00071701,0.000773315,0.0157016,-0.0211218,0.000677147,0.000352898,-0.00878815
38,1,0,0,0,0,0,0,231.8,254,0,0,0,0,0,0,0,231.8,766,0,0.000921669,7.30893e-05,0.00131733,0.017044,0.00552639,0.000791702,0.000873489,0.000150719,-0.0669228,0.000945892,0.00104034,0.0181811,-0.02013,0.00124935,-2.8572e-05,-0.00890259
38,2,0,0,0,0,0,0,231.8,254,0,0,0,0,0,0,0,231.8,766,0,0.00115055,0.000225677,0.000478096,0.0167389,0.00174984,0.000524673,0.00117867,0.00026516,-0.0642907,0.00197586,0.000315552,0.0187533,-0.0200156,0.000944176,0.00069622,-0.00779633
38,3,0,0,0,0,0,0,231.8,254,0,0,0,0,0,0,0,231.8,766,0,0.0011887,0.00167526,0.000249214,0.0168151,-0.00076786,0.00136391,0.000568314,0.00076107,0.0590385,0.000640716,0.000162964,0.0186389,-0.0211218,0.00151638,0.00134472,-0.00955109
38,4,0,0,0,0,0,0,231.8,254,0,0,0,0,0,0,0,231.8,766,0,0.000273171,0.00018753,0.000783272,0.0151748,-0.000424538,-0.000123825,0.000339432,0.000455895,-0.050367,0.000259247,-0.000638123,0.0145572,-0.0212363,0.000753441,-0.000333748,-0.00916962
38,5,0,0,0,0,0,0,231.8,254,0,0,0,0,0,0,0,231.8,766,0,0.000997963,0.00102676,0.000897713,0.0164718,0.0149105,0.000791702,7.24029e-05,0.000150719,-0.0858437,0.00125107,0.000315552,0.0130313,-0.0210074,0.000600853,0.00069622,-0.00951294
38,6,0,0,0,0,0,0,231.8,254,0,0,0,0,0,0,0,231.8,766,0,0.00141758,0.000607147,0.000592537,0.0160522,0.217242,0.000486526,0.000835342,0.000608482,-0.0378167,0.000144806,-6.59181e-05,0.0113147,-0.0217703,0.00132565,0.00103954,-0.00905518
38,7,0,0,0,0,0,0,231.8,254,0,0,0,0,0,0,0,231.8,766,0,0.000921669,0.00110306,0.000897713,0.0162811,0.417666,0.000677261,0.00106422,0.000188866,0.00883705,0.000640716,-0.000180359,0.0089114,-0.0218085,0.00025753,0.00130657,-0.00737671
38,8,0,0,0,0,0,0,231.8,254,0,0,0,0,0,0,0,231.8,766,0,-0.000146446,0.00217117,0.00120289,0.0160141,0.271602,0.000600967,7.24029e-05,-0.000459633,0.026995,0.000869598,0.000620727,0.00441006,-0.0204733,0.000715294,-0.000638924,-0.00802521
38,9,0,0,0,0,0,0,231.8,254,0,0,0,0,0,0,0,231.8,766,0,0.000387612,-0.000499115,-0.000437431,0.0159378,0.208163,0.000715408,0.000835342,0.000303307,-0.0710809,-0.000236664,0.000697021,0.00490597,-0.0208167,0.00113491,0.000658073,-0.00989441
39,0,0,0,0,0,0,0,231.8,254,0,0,0,0,0,0,0,231.8,766,0,0.000692788,0.00182785,0.00093586,0.0160141,0.136065,0.000906143,0.00060646,0.00152401,0.028559,0.000984039,0.000735168,0.0110095,-0.0210455,0.00117306,0.00187878,-0.00829224
39,1,0,0,0,0,0,0,231.8,254,0,0,0,0,0,0,0,231.8,766,0,0.000616494,0.00110306,0.000668831,0.0171966,0.077319,0.000600967,0.00102608,0.000951805,0.0336326,0.000564422,0.000620727,0.0135272,-0.0206641,0.00132565,0.00103954,-0.00787262
39,2,0,0,0,0,0,0,231.8,254,0,0,0,0,0,0,0,231.8,766,0,0.000273171,0.000836029,0.00124104,0.016777,0.0309323,0.000867996,0.00144569,0.000455895,-0.0579202,0.00193771,0.000887756,0.0142138,-0.0206641,0.000639,0.00111584,-0.00749115
39,3,0,0,0,0,0,0,231.8,254,0,0,0,0,0,0,0,231.8,766,0,0.000273171,0.00018753,-0.000399284,0.0164337,-0.0085117,-0.000772324,-0.00027092,0.000532188,0.0433982,-0.000618134,-0.000142212,0.0115054,-0.0228003,0.000104942,0.000429192,-0.00741486
39,4,0,0,0,0,0,0,231.8,254,0,0,0,0,0,0,0,231.8,766,0,0.0005402,-0.000232087,0.00101215,0.0168151,-0.0404407,2.87627e-05,0.00098793,0.000379601,0.0511802,0.00128921,8.66698e-05,0.0057452,-0.0215414,2.86484e-05,4.77219e-05,-0.00821594
39,5,0,0,0,0,0,0,231.8,254,0,0,0,0,0,0,0,231.8,766,0,0.000387612,0.000683441,-9.41086e-05,0.0163574,-0.06207,0.000372085,0.000263138,0.000837364,-0.0560128,0.000106659,0.000315552,0.00856808,-0.0212744,0.000639,0.00058178,-0.00852112
39,6,0,0,0,0,0,0,231.8,254,0,0,0,0,0,0,0,231.8,766,0,0.00206608,0.000683441,0.000478096,0.0158233,-0.0796558,0.00056282,0.000873489,0.00121883,0.0500358,0.000564422,0.00115479,0.0116198,-0.0208167,0.00151638,0.00153545,-0.00928406
39,7,0,0,0,0,0,0,231.8,254,0,0,0,0,0,0,0,231.8,766,0,0.000235024,7.30893e-05,0.000249214,0.015747,-0.0954105,0.000219498,0.000339432,0.000570335,0.0637305,0.00125107,-0.000714417,0.0128024,-0.0211981,0.000143089,-0.000143013,-0.00756744
39,8,0,0,0,0,0,0,231.8,254,0,0,0,0,0,0,0,231.8,766,0,0.00107426,0.0012175,0.00124104,0.0163574,-0.104985,0.00178352,0.00098793,0.00106625,-0.06307,0.00163254,0.000620727,0.0176852,-0.0213889,0.00102047,0.00233654,-0.00844482
39,9,0,0,0,0,0,0,231.8,254,0,0,0,0,0,0,0,231.8,766,0,0.000769082,0.000874176,0.000287361,0.0164337,-0.110402,0.000181351,0.00159828,0.00026516,-0.0198113,0.000755157,0.000735168,0.0204699,-0.0195578,2.86484e-05,0.00115398,-0.00787262
40,0,0,0,0,0,0,0,231.8,254,0,0,0,0,0,0,0,231.8,766,0,0.000349465,0.00106491,0.000478096,0.0155563,-0.112653,0.000486526,-0.000614243,0.000646629,-0.000508957,0.000449982,-0.000218506,0.0249331,-0.0216177,0.000715294,0.000848808,-0.00859741
40,1,0,0,0,0,0,0,231.8,254,0,0,0,0,0,0,0,231.8,766,0,0.0011887,0.000645294,0.000325508,0.0165863,-0.117421,-0.000123825,0.000835342,0.000837364,0.0692237,0.00106033,0.00096405,0.019707,-0.0218466,0.00025753,0.000238457,-0.00928406
40,2,0,0,0,0,0,0,231.8,254,0,0,0,0,0,0,0,231.8,766,0,0.000273171,0.00148453,0.000783272,0.0160141,-0.117688,0.000867996,-0.000423508,-0.000230751,-0.0148904,0.00113663,0.000201111,0.0163882,-0.0205115,0.00124935,0.000276604,-0.00836853
40,3,0,0,0,0,0,0,231.8,254,0,0,0,0,0,0,0,231.8,766,0,0.00202793,0.00144638,0.00116474,0.0164718,-0.10716,0.000486526,0.000453873,0.00118069,-0.0141274,0.00125107,0.0010022,0.0188296,-0.0207404,0.00124935,0.00134472,-0.00871185
40,4,0,0,0,0,0,0,231.8,254,0,0,0,0,0,0,0,231.8,766,0,0.000235024,0.00095047,0.000439949,0.0166626,-0.101895,0.000715408,0.00133125,-0.00011631,0.0778068,0.000984039,0.00046814,0.0107043,-0.0205115,0.000944176,-0.000333748,-0.00947479
40,5,0,0,0,0,0,0,231.8,254,0,0,0,0,0,0,0,231.8,766,0,6.14207e-06,-0.000232087,0.000859566,0.0153656,-0.0989582,0.000105057,0.000263138,-4.00161e-05,-0.0144707,-0.000122223,-0.000599976,0.010094,-0.0211981,6.67954e-05,0.00149731,-0.00741486
40,6,0,0,0,0,0,0,231.8,254,0,0,0,0,0,0,0,231.8,766,0,0.00137943,0.00110306,0.000706978,0.0164337,-0.091901,0.000906143,0.000644607,-0.000154457,-0.0113808,0.000488129,0.000391846,0.013489,-0.0205496,0.00117306,0.0010014,-0.00764374
40,7,0,0,0,0,0,0,231.8,254,0,0,0,0,0,0,0,231.8,766,0,-0.000299034,0.000301971,0.000363655,0.0166244,-0.0860645,0.00132576,0.000949783,0.000379601,0.0923789,0.00109848,0.00187958,0.0179904,-0.0205115,0.00166897,0.00184063,-0.00863556
40,8,0,0,0,0,0,0,231.8,254,0,0,0,0,0,0,0,231.8,766,0,0.000235024,0.00125565,0.000401802,0.0159759,-0.0762989,0.00056282,0.000835342,0.00175289,-0.0126778,0.00163254,0.000544433,0.0198596,-0.0208929,0.000906029,0.000314751,-0.00821594
40,9,0,0,0,0,0,0,231.8,254,0,0,0,0,0,0,0,231.8,766,0,0.000692788,0.000797882,0.00158436,0.0173492,-0.0692417,0.000105057,0.00098793,0.000455895,-0.0142419,0.00182327,0.00126923,0.0191729,-0.0202063,0.00109676,0.0010014,-0.0075293
41,0,0,0,0,0,0,0,231.8,254,0,0,0,0,0,0,0,231.8,766,0,0.0011124,0.000683441,5.84793e-05,0.01651,-0.0624134,0.00105873,-0.000232773,0.000227013,0.0971854,0.00147995,0.000277405,0.0187533,-0.0209692,0.000371971,0.000848808,-0.00894073
41,1,0,0,0,0,0,0,231.8,254,0,0,0,0,0,0,0,231.8,766,0,-0.000375328,-3.20468e-06,-1.78147e-05,0.0152511,-0.0554325,0.000639114,0.000720901,-0.000764809,-0.0106179,0.000297394,-6.59181e-05,0.0207751,-0.0213126,0.000295677,0.0010014,-0.00913147
41,2,0,0,0,0,0,0,231.8,254,0,0,0,0,0,0,0,231.8,766,0,0.000845375,-0.00110947,0.000974007,0.01651,-0.0492527,0.000333939,0.000148697,0.00133327,-0.0501763,0.00102219,0.000773315,0.0202411,-0.0211981,0.000677147,-2.8572e-05,-0.0075293
41,3,0,0,0,0,0,0,231.8,254,0,0,0,0,0,0,0,231.8,766,0,0.000692788,0.000607147,-5.59617e-05,0.0165481,-0.039487,0.00056282,0.000263138,0.000455895,-0.00649803,-0.000618134,0.00104034,0.0180667,-0.0208167,0.000562706,0.00149731,-0.00779633
41,4,0,0,0,0,0,0,231.8,254,0,0,0,0,0,0,0,231.8,766,0,0.000387612,-0.00019394,-0.000437431,0.0161666,-0.0312854,0.00056282,0.000568314,0.000532188,0.0351966,0.000907745,0.000162964,0.0125354,-0.0205878,0.000677147,0.00107769,-0.00882629
41,5,0,0,0,0,0,0,231.8,254,0,0,0,0,0,0,0,231.8,766,0,0.000959816,0.00156082,0.00139362,0.0166244,-0.0266315,0.00132576,0.00133125,0.00076107,0.0519431,0.00193771,0.0010022,0.0101321,-0.0213507,0.00132565,9.57493e-06,-0.00836853
41,6,0,0,0,0,0,0,231.8,254,0,0,0,0,0,0,0,231.8,766,0,-0.000299034,0.000454559,0.000401802,0.0159759,-0.0218631,-0.000390854,-0.000385361,-0.000726662,-0.0502526,0.000411835,-0.000256653,0.00757626,-0.0207022,0.000982323,-0.000295601,-0.00821594
41,7,0,0,0,0,0,0,231.8,254,0,0,0,0,0,0,0,231.8,766,0,0.000463906,-7.94986e-05,0.000745125,0.0162429,-0.0129367,0.00113502,0.000263138,0.000951805,0.0447715,0.00102219,0.000773315,0.0171893,-0.0217703,0.00124935,0.000124016,-0.00920776
41,8,0,0,0,0,0,0,231.8,254,0,0,0,0,0,0,0,231.8,766,0,0.000769082,0.00159897,0.00112659,0.0162811,-0.00668064,0.00151649,0.000339432,0.000303307,0.0457252,0.000907745,0.00107849,0.0157016,-0.0187949,0.00136379,0.00126843,-0.00802521
41,9,0,0,0,0,0,0,231.8,254,0,0,0,0,0,0,0,231.8,766,0,0.000349465,0.000569,0.00127918,0.0167007,-0.00320927,0.000105057,0.00156013,0.000684776,-0.0494897,0.000869598,0.00123108,0.014786,-0.0208167,0.00102047,0.00138287,-0.00993256
42,0,0,0,0,0,0,0,231.8,254,0,0,0,0,0,0,0,231.8,766,0,6.14207e-06,-0.000155793,-9.41086e-05,0.0166626,0.0022076,0.000219498,0.00106422,-7.81631e-05,0.0507987,0.000411835,-0.000447388,0.0116198,-0.0213889,-0.000200233,0.000162163,-0.00890259
42,1,0,0,0,0,0,0,231.8,254,0,0,0,0,0,0,0,231.8,766,0,0.000883522,0.00102676,0.000401802,0.015747,0.000872459,0.000372085,0.000148697,-0.000230751,0.0583518,0.00109848,-0.000447388,0.0123828,-0.0213889,0.00025753,0.000124016,-0.00852112
42,2,0,0,0,0,0,0,231.8,254,0,0,0,0,0,0,0,231.8,766,0,-0.000108299,0.0012175,0.00120289,0.0164718,0.00148281,0.000639114,0.000415726,0.000913658,-0.0541436,0.00109848,0.000277405,0.0126879,-0.0210837,0.000715294,0.000162163,-0.00798706
42,3,0,0,0,0,0,0,231.8,254,0,0,0,0,0,0,0,231.8,766,0,-7.01519e-05,0.00137009,0.000821419,0.0174255,0.00876888,0.000677261,0.00102608,0.000303307,0.0520194,0.00128921,0.00130737,0.0110858,-0.0205878,0.00113491,0.00191692,-0.00791077
42,4,0,0,0,0,0,0,231.8,254,0,0,0,0,0,0,0,231.8,766,0,0.000463906,0.000759735,-0.000170403,0.0160522,0.0116681,0.000600967,0.00049202,-0.00049778,0.0644935,0.000564422,4.85228e-05,0.00875881,-0.0222662,0.000448265,9.57493e-06,-0.00920776
42,5,0,0,0,0,0,0,231.8,254,0,0,0,0,0,0,0,231.8,766,0,0.000349465,-0.00030838,0.000668831,0.0165863,0.0143765,0.000753555,0.000835342,-1.86916e-06,-0.0655877,-0.000808869,0.000658874,0.0116198,-0.0199393,0.000639,-0.000791511,-0.00764374
42,6,0,0,0,0,0,0,231.8,254,0,0,0,0,0,0,0,231.8,766,0,6.14207e-06,0.00125565,0.00112659,0.0162811,0.0173901,0.00102058,0.00129311,0.000341454,-0.0222527,0.00113663,1.03759e-05,0.0150531,-0.0207404,0.00102047,0.000886955,-0.00951294
42,7,0,0,0,0,0,0,231.8,254,0,0,0,0,0,0,0,231.8,766,0,0.000196877,0.000645294,9.66262e-05,0.0178833,0.0185345,0.00117317,0.000568314,0.000341454,-0.00214928,0.00147995,0.00119293,0.0118487,-0.0194434,0.00182156,0.000734367,-0.00825409
42,8,0,0,0,0,0,0,231.8,254,0,0,0,0,0,0,0,231.8,766,0,-0.00022274,0.000111236,0.00055439,0.0152893,0.0174282,0.0014402,0.00011055,-0.00011631,0.0714744,0.000640716,-0.000409241,0.00818661,-0.0212363,6.67954e-05,0.000886955,-0.00905518
42,9,0,0,0,0,0,0,231.8,254,0,0,0,0,0,0,0,231.8,766,0,0.000349465,0.000683441,0.000706978,0.0161285,0.0214337,0.000448379,0.000301285,0.000150719,-0.0187432,0.00140366,0.000506287,0.00658443,-0.02116,0.000982323,-0.000486336,-0.00863556
43,0,0,0,0,0,0,0,231.8,254,0,0,0,0,0,0,0,231.8,766,0,0.000921669,0.00117935,0.00127918,0.0175781,0.0242566,0.000982437,0.00060646,0.00106625,-0.0216042,0.000869598,0.00126923,0.0128405,-0.0212744,0.0012112,0.00138287,-0.0075293
43,1,0,0,0,0,0,0,231.8,254,0,0,0,0,0,0,0,231.8,766,0,0.0011124,0.000797882,0.000592537,0.0166244,0.0252102,0.00140205,0.00121681,0.000455895,0.0733817,0.00102219,-0.000218506,0.0190585,-0.0205496,0.000677147,0.0015736,-0.00756744
43,2,0,0,0,0,0,0,231.8,254,0,0,0,0,0,0,0,231.8,766,0,0.000769082,0.000797882,0.00093586,0.0163192,0.0242184,2.87627e-05,0.00110237,0.00026516,-0.0202691,0.000259247,0.00130737,0.0121157,-0.0207785,0.000944176,-6.6719e-05,-0.00859741
43,3,0,0,0,0,0,0,231.8,254,0,0,0,0,0,0,0,231.8,766,0,-0.000260887,0.000340118,0.000516243,0.0154037,0.0301312,0.000486526,0.000415726,-0.00087925,-0.0176369,0.000106659,-0.000599976,0.0120776,-0.0204733,0.000715294,0.00149731,-0.0105811
43,4,0,0,0,0,0,0,231.8,254,0,0,0,0,0,0,0,231.8,766,0,0.00130314,0.00167526,0.000974007,0.0171585,0.0280331,6.69097e-05,0.00106422,0.000913658,0.0886024,0.000373688,0.00180328,0.0198214,-0.0208167,0.000562706,0.00187878,-0.0081015
43,5,0,0,0,0,0,0,231.8,254,0,0,0,0,0,0,0,231.8,766,0,0.000769082,0.000912323,0.00116474,0.0166626,0.0231503,0.00117317,0.00209419,-4.00161e-05,-0.0183999,0.00128921,0.00168884,0.0211184,-0.0200156,0.000944176,0.000314751,-0.0093222
43,6,0,0,0,0,0,0,231.8,254,0,0,0,0,0,0,0,231.8,766,0,0.000463906,0.000378265,0.00101215,0.0157852,0.0239514,0.000219498,0.000415726,0.000608482,-0.0211465,-0.000122223,0.00119293,0.021538,-0.0203207,0.000562706,0.00130657,-0.0093985
43,7,0,0,0,0,0,0,231.8,254,0,0,0,0,0,0,0,231.8,766,0,0.00103611,0.000530853,0.000897713,0.017044,0.021777,0.000257645,0.000873489,0.000608482,0.0932182,0.00178513,0.00123108,0.0226825,-0.0208167,0.00155453,0.00058178,-0.00905518
43,8,0,0,0,0,0,0,231.8,254,0,0,0,0,0,0,0,231.8,766,0,0.000807228,0.000759735,0.000478096,0.0174636,0.0229596,0.00140205,0.000339432,0.000532188,-0.015043,0.00132736,0.000925903,0.0210803,-0.0205878,-0.000352821,0.00172619,-0.00806335
43,9,0,0,0,0,0,0,231.8,254,0,0,0,0,0,0,0,231.8,766,0,0.000997963,0.000759735,-5.59617e-05,0.0161285,0.0219296,-0.000123825,0.00140755,0.000684776,-0.0562035,0.000869598,0.000544433,0.0123828,-0.0195959,0.00124935,0.000352898,-0.00890259
44,0,0,0,0,0,0,0,231.8,254,0,0,0,0,0,0,0,231.8,766,0,6.14207e-06,0.000988617,0.00204212,0.0169296,0.0198697,0.000829849,0.000644607,-0.00011631,-0.0121819,0.00189957,0.000887756,0.002579,-0.0202063,0.00147823,0.000772514,-0.00897888
44,1,0,0,0,0,0,0,231.8,254,0,0,0,0,0,0,0,231.8,766,0,0.000463906,0.000149383,9.66262e-05,0.0163192,0.0211666,0.000715408,0.00098793,0.000188866,0.0511039,0.000106659,0.000162964,0.00929287,-0.0203589,0.000181236,0.0010014,-0.00890259
44,2,0,0,0,0,0,0,231.8,254,0,0,0,0,0,0,0,231.8,766,0,0.000769082,7.30893e-05,0.000897713,0.0163955,0.0172375,2.87627e-05,0.000835342,7.44248e-05,0.184466,0.00121292,0.00058258,0.0126117,-0.0200537,0.00109676,-0.000753365,-0.00855927
44,3,0,0,0,0,0,0,231.8,254,0,0,0,0,0,0,0,231.8,766,0,0.000463906,0.000836029,0.000897713,0.0169296,0.0184582,0.00140205,0.000682754,0.000532188,0.162951,0.000335541,0.000239258,0.0104754,-0.018833,0.00170712,0.00145916,-0.00813965
44,4,0,0,0,0,0,0,231.8,254,0,0,0,0,0,0,0,231.8,766,0,0.00134129,0.000225677,0.00146992,0.0175018,0.018153,0.00094429,0.00102608,0.00144772,0.13003,0.00102219,0.00176514,0.0144427,-0.0207022,0.00166897,0.00145916,-0.00775818
44,5,0,0,0,0,0,0,231.8,254,0,0,0,0,0,0,0,231.8,766,0,0.00130314,0.000607147,-9.41086e-05,0.0162429,0.013995,0.00147835,0.000759048,-0.000383339,-0.0112283,0.000907745,1.03759e-05,0.0138705,-0.0211981,-0.000123939,-0.000371895,-0.00859741
44,6,0,0,0,0,0,0,231.8,254,0,0,0,0,0,0,0,231.8,766,0,0.000807228,3.49423e-05,0.000401802,0.0154037,0.0121258,0.000181351,0.000263138,7.44248e-05,-0.1238,3.03648e-05,0.000773315,0.0131457,-0.0224188,0.00182156,0.000543633,-0.00970367
44,7,0,0,0,0,0,0,231.8,254,0,0,0,0,0,0,0,231.8,766,0,0.00115055,0.000149383,0.00127918,0.0170822,0.0126599,0.000753555,0.0013694,0.000379601,0.00616676,0.00140366,0.00115479,0.0175326,-0.0203589,0.000791588,0.00103954,-0.00871185
44,8,0,0,0,0,0,0,231.8,254,0,0,0,0,0,0,0,231.8,766,0,0.000311318,0.000759735,0.000478096,0.0163574,0.0147961,-0.000200119,0.00117867,0.000227013,0.0113166,0.000984039,0.000315552,0.0205844,-0.0218085,0.000143089,0.00206951,-0.0081015
44,9,0,0,0,0,0,0,231.8,254,0,0,0,0,0,0,0,231.8,766,0,0.000463906,0.000301971,0.0010503,0.0163574,0.013995,0.000448379,0.000720901,0.000532188,-0.104917,-0.000274811,0.00107849,0.0195163,-0.0205115,-0.000352821,-2.8572e-05,-0.00894073
45,0,0,0,0,0,0,0,231.8,254,0,0,0,0,0,0,0,231.8,766,0,-3.20049e-05,-0.000727997,0.000897713,0.0159759,0.0132321,0.000410232,0.000568314,7.44248e-05,0.0118888,0.000488129,-0.000371094,0.0185626,-0.0202444,0.00163082,-0.000524483,-0.00875
45,1,0,0,0,0,0,0,231.8,254,0,0,0,0,0,0,0,231.8,766,0,0.000807228,0.000912323,0.000859566,0.0164718,0.0151776,0.000181351,0.00102608,0.00129513,0.0302375,0.00155624,0.000697021,0.0243228,-0.0197104,0.00147823,0.00134472,-0.00951294
45,2,0,0,0,0,0,0,231.8,254,0,0,0,0,0,0,0,231.8,766,0,0.00015873,0.000988617,0.00127918,0.0175399,0.011134,0.00178352,0.00178902,-0.00011631,-0.101865,0.000678863,0.00145996,0.0209658,-0.0214651,0.00155453,0.00119213,-0.00844482
45,3,0,0,0,0,0,0,231.8,254,0,0,0,0,0,0,0,231.8,766,0,0.00015873,0.000492706,0.000630684,0.01651,0.0138806,0.00113502,0.00060646,-1.86916e-06,-0.0510537,0.000182953,0.000162964,0.0127261,-0.0200537,0.000677147,0.00199322,-0.00825409
45,4,0,0,0,0,0,0,231.8,254,0,0,0,0,0,0,0,231.8,766,0,0.000616494,0.000416412,0.000516243,0.0166244,0.0114773,0.00102058,0.000644607,0.000455895,-0.0279366,-8.40761e-05,0.000887756,0.00963619,-0.0200156,0.00124935,0.000772514,-0.00867371
45,5,0,0,0,0,0,0,231.8,254,0,0,0,0,0,0,0,231.8,766,0,0.000845375,0.000607147,0.000668831,0.0157852,0.0105999,0.000410232,0.000301285,0.00026516,0.0468314,0.00189957,0.00107849,0.0141757,-0.0217703,0.000333824,0.00161175,-0.00802521
45,6,0,0,0,0,0,0,231.8,254,0,0,0,0,0,0,0,231.8,766,0,0.000654641,0.00125565,0.00143177,0.0173874,0.0149105,0.000906143,0.00148384,0.00110439,-0.0389611,0.0002211,0.000887756,0.0153582,-0.0202063,0.0018597,0.00191692,-0.00936035
45,7,0,0,0,0,0,0,231.8,254,0,0,0,0,0,0,0,231.8,766,0,-0.000413475,0.00018753,0.000249214,0.0165863,0.0131939,0.000143204,0.000644607,0.00114254,-0.0330102,0.000564422,-0.000561829,0.0158923,-0.02116,0.000333824,0.000391045,-0.00989441
45,8,0,0,0,0,0,0,231.8,254,0,0,0,0,0,0,0,231.8,766,0,-0.000299034,0.000378265,0.00116474,0.0160904,0.0212429,0.00140205,0.000759048,0.000303307,0.0619758,0.0014418,0.000201111,0.0127642,-0.0215033,0.0012875,0.00168804,-0.00871185
45,9,0,0,0,0,0,0,231.8,254,0,0,0,0,0,0,0,231.8,766,0,0.00126499,0.00125565,0.00108845,0.016777,0.0331448,0.00128761,0.00186531,0.000989952,-0.0283181,0.00113663,0.000811462,0.0109332,-0.0205115,0.000333824,0.00058178,-0.0081015
46,0,0,0,0,0,0,0,231.8,254,0,0,0,0,0,0,0,231.8,766,0,6.14207e-06,3.49423e-05,0.000974007,0.0160904,0.0146054,0.00117317,0.00098793,0.000570335,-0.0250756,0.0002211,1.03759e-05,0.00864437,-0.02116,-0.00023838,-0.000104866,-0.00859741
46,1,0,0,0,0,0,0,231.8,254,0,0,0,0,0,0,0,231.8,766,0,-0.000299034,-7.94986e-05,0.000783272,0.0156326,0.0135373,-4.75312e-05,-0.000194626,3.62778e-05,0.0836814,0.000526275,0.000620727,0.00849178,-0.0208167,0.00117306,-6.6719e-05,-0.00928406
46,2,0,0,0,0,0,0,231.8,254,0,0,0,0,0,0,0,231.8,766,0,0.000235024,-0.000575409,0.000478096,0.017044,0.0133465,-0.000200119,-0.000118332,-0.00011631,-0.021795,0.000945892,-0.000142212,0.012192,-0.0213126,0.00102047,0.000810661,-0.00813965
46,3,0,0,0,0,0,0,231.8,254,0,0,0,0,0,0,0,231.8,766,0,0.000845375,0.000797882,0.000783272,0.0165481,0.00911221,-9.38424e-06,0.000759048,-1.86916e-06,-0.0203454,0.000907745,0.000429993,0.0118106,-0.0206641,0.00102047,0.000963249,-0.0081015
46,4,0,0,0,0,0,0,231.8,254,0,0,0,0,0,0,0,231.8,766,0,0.000654641,-0.000384674,5.84793e-05,0.0162811,0.00644192,0.000753555,0.000377579,0.000951805,0.09215,0.000526275,-0.000409241,0.0138324,-0.0209311,0.00151638,0.000734367,-0.00974182
46,5,0,0,0,0,0,0,231.8,254,0,0,0,0,0,0,0,231.8,766,0,0.00141758,0.000111236,0.000859566,0.0168151,0.00541195,0.000753555,0.00106422,0.00121883,-0.0129067,0.000869598,0.000887756,0.0160067,-0.0200919,0.000524559,0.000772514,-0.00718597
46,6,0,0,0,0,0,0,231.8,254,0,0,0,0,0,0,0,231.8,766,0,0.000463906,0.000340118,0.00101215,0.0169296,0.0073193,0.000295792,0.000911636,0.00133327,-0.0511681,0.000793304,0.000658874,0.0143283,-0.0196341,0.000715294,0.0015736,-0.00649933
46,7,0,0,0,0,0,0,231.8,254,0,0,0,0,0,0,0,231.8,766,0,0.000654641,-0.000155793,-0.000170403,0.0170059,0.00884518,0.000791702,0.00125496,0.000989952,-0.00684135,0.000182953,0.00046814,0.0144809,-0.0212363,0.00105862,0.00107769,-0.00875
46,8,0,0,0,0,0,0,231.8,254,0,0,0,0,0,0,0,231.8,766,0,0.0005402,-3.20468e-06,0.0010503,0.0158996,0.009837,0.00128761,0.00121681,0.000455895,0.0331367,0.000335541,4.85228e-05,0.015816,-0.0204352,0.00151638,0.00107769,-0.00669006
46,9,0,0,0,0,0,0,231.8,254,0,0,0,0,0,0,0,231.8,766,0,0.000502053,0.00129379,0.000287361,0.0170822,0.00655636,0.000791702,0.00060646,0.000684776,0.0513328,0.00113663,0.00184143,0.0129168,-0.0202444,0.000867882,0.00203136,-0.00657562
47,0,0,0,0,0,0,0,231.8,254,0,0,0,0,0,0,0,231.8,766,0,0.00015873,0.000225677,0.000249214,0.0167389,0.00388607,-0.000123825,0.000835342,0.000455895,-0.0496423,0.00106033,0.000697021,0.0118106,-0.0211981,0.00113491,0.000925102,-0.00993256
47,1,0,0,0,0,0,0,231.8,254,0,0,0,0,0,0,0,231.8,766,0,0.000654641,0.00110306,5.84793e-05,0.0158615,0.00419125,0.000372085,0.000301285,0.000837364,0.0466407,-0.000122223,-0.000218506,0.0152438,-0.0207404,0.000715294,0.00111584,-0.00779633
47,2,0,0,0,0,0,0,231.8,254,0,0,0,0,0,0,0,231.8,766,0,0.000349465,0.000530853,0.000592537,0.016777,0.00426754,0.00147835,0.00148384,0.000455895,0.0489295,0.00071701,0.00119293,0.0141757,-0.0205115,0.00201229,0.000886955,-0.0075293
47,3,0,0,0,0,0,0,231.8,254,0,0,0,0,0,0,0,231.8,766,0,0.0005402,0.00018753,0.00135548,0.0172729,0.00426754,0.00113502,0.00178902,0.00137142,-0.045675,0.00147995,0.00168884,0.0167697,-0.0207785,0.0012112,0.000162163,-0.00920776
47,4,0,0,0,0,0,0,231.8,254,0,0,0,0,0,0,0,231.8,766,0,-0.000642356,0.000988617,-9.41086e-05,0.0163574,0.00281796,0.000486526,0.000224991,0.000379601,0.0530112,-4.59291e-05,8.66698e-05,0.0203173,-0.0213507,0.00113491,0.00103954,-0.00852112
47,5,0,0,0,0,0,0,231.8,254,0,0,0,0,0,0,0,231.8,766,0,0.000578347,7.30893e-05,0.000630684,0.0163192,0.00270351,-8.56782e-05,-0.000194626,0.000532188,0.0614036,0.00197586,-0.000523682,0.0214236,-0.0214651,0.00117306,9.57493e-06,-0.00741486
47,6,0,0,0,0,0,0,231.8,254,0,0,0,0,0,0,0,231.8,766,0,-0.00071865,-0.000155793,0.00108845,0.0166626,0.00400051,0.000829849,0.00117867,0.000532188,-0.0504433,0.00117477,0.000506287,0.0175326,-0.0216177,0.000524559,0.00119213,-0.00821594
47,7,0,0,0,0,0,0,231.8,254,0,0,0,0,0,0,0,231.8,766,0,0.000196877,0.000607147,-0.000246697,0.0162811,0.00327572,0.00094429,0.00060646,0.000608482,0.0557578,0.000297394,0.000239258,0.0213092,-0.0206259,0.00117306,0.00138287,-0.0075293
47,8,0,0,0,0,0,0,231.8,254,0,0,0,0,0,0,0,231.8,766,0,8.2436e-05,-0.00068985,2.03323e-05,0.0163955,0.00327572,0.000448379,0.000568314,0.000608482,0.0679649,0.00109848,-0.00105774,0.0187533,-0.0215796,0.000600853,0.00115398,-0.00726227
47,9,0,0,0,0,0,0,231.8,254,0,0,0,0,0,0,0,231.8,766,0,0.00126499,0.000874176,0.000821419,0.016777,0.00648006,0.00163094,0.000301285,0.000875511,-0.0608956,0.00071701,0.000506287,0.014519,-0.0208548,0.00178341,0.000772514,-0.00875
48,0,0,0,0,0,0,0,231.8,254,0,0,0,0,0,0,0,231.8,766,0,0.00137943,0.000874176,0.000859566,0.0169677,0.00533566,0.000143204,0.000797195,0.000227013,-0.0182854,0.00071701,0.000773315,0.0142901,-0.0216559,0.000104942,0.00111584,-0.00909332
48,1,0,0,0,0,0,0,231.8,254,0,0,0,0,0,0,0,231.8,766,0,4.4289e-05,0.000645294,0.000630684,0.0162429,0.00598415,0.00159279,0.000911636,-0.000650368,-5.11929e-05,0.00113663,-2.77711e-05,0.0148242,-0.0211981,0.00109676,0.000314751,-0.00882629
48,2,0,0,0,0,0,0,231.8,254,0,0,0,0,0,0,0,231.8,766,0,0.000463906,-0.00118576,0.000439949,0.0162811,0.00476345,0.00056282,0.000720901,0.00179104,0.0696052,-0.000389252,-0.000256653,0.0130694,-0.021694,0.000791588,0.00149731,-0.00890259
48,3,0,0,0,0,0,0,231.8,254,0,0,0,0,0,0,0,231.8,766,0,0.000883522,0.00095047,0.000897713,0.01651,0.00503048,0.00170723,0.000263138,0.000989952,-0.0150811,0.00102219,0.00107849,0.011391,-0.0207022,0.00201229,0.00134472,-0.00638489
48,4,0,0,0,0,0,0,231.8,254,0,0,0,0,0,0,0,231.8,766,0,0.000845375,0.000797882,0.000401802,0.0156707,0.00617489,0.000143204,0.00060646,0.000913658,-0.0182473,0.00071701,1.03759e-05,0.00906399,-0.0217322,-0.000276527,0.000658073,-0.00813965
48,5,0,0,0,0,0,0,231.8,254,0,0,0,0,0,0,0,231.8,766,0,-7.01519e-05,0.000149383,0.000401802,0.0158615,0.0073193,0.000295792,0.00114052,7.44248e-05,0.0757468,0.000526275,0.000544433,0.0115054,-0.0211218,0.00144009,0.000619926,-0.00909332
48,6,0,0,0,0,0,0,231.8,254,0,0,0,0,0,0,0,231.8,766,0,0.0011887,0.000111236,0.000706978,0.0169677,0.00701412,0.00124947,0.00049202,0.000837364,-0.0174844,0.00071701,0.000697021,0.00975063,-0.0206641,0.00170712,0.00226025,-0.00634674
48,7,0,0,0,0,0,0,231.8,254,0,0,0,0,0,0,0,231.8,766,0,0.00164646,0.00144638,0.000630684,0.0172729,0.0029324,0.00113502,0.00098793,0.000799217,-0.01531,0.00109848,0.00184143,0.0144809,-0.0205496,0.00124935,0.00138287,-0.00768188
48,8,0,0,0,0,0,0,231.8,254,0,0,0,0,0,0,0,231.8,766,0,-0.000146446,-0.00126205,0.000592537,0.0161666,0.00117764,0.000639114,0.00102608,-0.000154457,0.0894798,0.000411835,-0.000599976,0.0153582,-0.0201682,0.00025753,-0.00102039,-0.00779633
48,9,0,0,0,0,0,0,231.8,254,0,0,0,0,0,0,0,231.8,766,0,0.000692788,0.000836029,0.00017292,0.01548,0.00277981,0.00102058,0.000377579,0.00118069,-0.0153481,0.0002211,-0.000180359,0.0173419,-0.0214651,0.00155453,0.00195507,-0.00905518
49,0,0,0,0,0,0,0,231.8,254,0,0,0,0,0,0,0,231.8,766,0,0.00137943,0.000912323,0.000287361,0.0171203,0.00442013,0.00102058,0.000377579,0.000722923,-0.0188958,0.00102219,0.00149811,0.0169223,-0.0205878,0.00117306,0.000124016,-0.00836853
49,1,0,0,0,0,0,0,231.8,254,0,0,0,0,0,0,0,231.8,766,0,0.000196877,0.000645294,0.000668831,0.0162048,0.00289425,0.00163094,0.00114052,0.000608482,0.0939811,0.00113663,0.00058258,0.0153201,-0.0203589,0.000791588,0.0010014,-0.0081778
49,2,0,0,0,0,0,0,231.8,254,0,0,0,0,0,0,0,231.8,766,0,-0.00022274,0.000569,0.000439949,0.0163574,0.00323757,0.000219498,-0.000347214,0.000913658,-0.0131356,0.000144806,0.000506287,0.0109332,-0.0215796,-0.000390968,0.000619926,-0.00863556
49,3,0,0,0,0,0,0,231.8,254,0,0,0,0,0,0,0,231.8,766,0,0.000692788,0.000759735,0.000630684,0.0168914,0.00232204,0.000524673,0.000911636,0.000799217,-0.0542199,0.00163254,0.000620727,0.010361,-0.0209692,0.00151638,0.00164989,-0.00859741
49,4,0,0,0,0,0,0,231.8,254,0,0,0,0,0,0,0,231.8,766,0,0.000692788,0.000569,-1.78147e-05,0.0162429,0.00426754,0.00147835,-0.000309067,0.000799217,-0.00958794,0.00071701,0.000811462,0.0114672,-0.0206641,0.000143089,0.00153545,-0.00859741
49,5,0,0,0,0,0,0,231.8,254,0,0,0,0,0,0,0,231.8,766,0,0.00107426,0.00156082,0.000897713,0.0173111,0.00483974,-4.75312e-05,0.00152199,0.00118069,0.0527442,0.000945892,-6.59181e-05,0.0185626,-0.0193671,0.0012112,-6.6719e-05,-0.00779633
49,6,0,0,0,0,0,0,231.8,254,0,0,0,0,0,0,0,231.8,766,0,-0.000527916,0.000416412,0.000859566,0.016777,0.00606045,0.000410232,0.00060646,-1.86916e-06,0.184962,0.00102219,-6.59181e-05,0.0202411,-0.0216559,0.000791588,0.0010014,-0.00890259
49,7,0,0,0,0,0,0,231.8,254,0,0,0,0,0,0,0,231.8,766,0,0.000807228,0.000340118,-0.000971489,0.0162811,0.00873074,0.000600967,0.000301285,0.00106625,0.163103,0.000488129,0.000506287,0.0210803,-0.0217322,0.00147823,0.00184063,-0.00863556
49,8,0,0,0,0,0,0,231.8,254,0,0,0,0,0,0,0,231.8,766,0,0.00153202,0.000874176,0.000745125,0.0170059,0.00880703,0.00201241,0.00110237,0.0010281,0.129916,0.0015181,0.000887756,0.0256961,-0.0208548,0.00140194,0.00107769,-0.00798706
49,9,0,0,0,0,0,0,231.8,254,0,0,0,0,0,0,0,231.8,766,0,0.00103611,0.000607147,0.000859566,0.0164337,0.00873074,0.000715408,0.000720901,0.000989952,-0.010122,-0.00103775,-0.000332947,0.0204318,-0.0213507,0.000371971,8.58689e-05,-0.00813965
50,0,0,0,0,0,0,0,231.8,254,0,0,0,0,0,0,0,231.8,766,0,0.000692788,0.000111236,0.00055439,0.01651,0.00579342,-0.000161972,0.000682754,-0.000917397,-0.122122,0.00212845,0.000277405,0.0137942,-0.0205878,0.000600853,0.000505486,-0.00928406
50,1,0,0,0,0,0,0,231.8,254,0,0,0,0,0,0,0,231.8,766,0,0.000959816,0.000569,-0.000513725,0.0157852,0.00758633,0.00109688,0.000568314,0.000913658,0.00685341,0.000945892,0.000353699,0.0172656,-0.0210837,0.000753441,0.00161175,-0.00821594
50,2,0,0,0,0,0,0,231.8,254,0,0,0,0,0,0,0,231.8,766,0,0.000654641,0.00110306,0.000821419,0.0154037,0.0103711,0.000410232,0.000759048,0.00106625,0.0113548,0.000373688,1.03759e-05,0.0190585,-0.0217322,0.000867882,0.00203136,-0.00722412
50,3,0,0,0,0,0,0,231.8,254,0,0,0,0,0,0,0,231.8,766,0,0.000311318,0.000225677,9.66262e-05,0.0170822,0.00674709,0.00102058,0.000148697,0.000188866,-0.104269,0.00125107,-0.000218506,0.0133364,-0.0209692,0.000906029,0.00119213,-0.00848297
50,4,0,0,0,0,0,0,231.8,254,0,0,0,0,0,0,0,231.8,766,0,0.000196877,0.0012175,-0.000246697,0.0163574,0.00510677,2.87627e-05,0.00060646,0.000570335,0.0132621,0.000793304,-0.000523682,0.013489,-0.0217322,0.000410118,0.000162163,-0.00836853
50,5,0,0,0,0,0,0,231.8,254,0,0,0,0,0,0,0,231.8,766,0,0.00103611,0.00106491,0.00112659,0.0166244,0.00621304,0.000829849,0.000720901,-0.00011631,0.0287498,0.000335541,0.000925903,0.0145953,-0.0205115,0.00136379,0.00206951,-0.00863556
50,6,0,0,0,0,0,0,231.8,254,0,0,0,0,0,0,0,231.8,766,0,0.00015873,0.000912323,0.00204212,0.0168914,-0.000691566,0.00178352,0.00121681,0.000455895,-0.0999963,0.00140366,-0.000104065,0.0182574,-0.0188712,0.00102047,0.000925102,-0.00741486
50,7,0,0,0,0,0,0,231.8,254,0,0,0,0,0,0,0,231.8,766,0,0.0011124,-0.000117646,0.000668831,0.0160904,-0.0116397,0.000791702,0.000797195,0.000188866,-0.0503289,0.00125107,0.000391846,0.0132983,-0.0204352,0.00113491,0.00130657,-0.00875
50,8,0,0,0,0,0,0,231.8,254,0,0,0,0,0,0,0,231.8,766,0,0.00130314,0.000759735,0.000630684,0.0166626,-0.0106479,0.00109688,0.00163643,0.000303307,-0.0277077,0.00071701,-0.000180359,0.00765255,-0.0210455,0.000867882,0.00176434,-0.00726227
50,9,0,0,0,0,0,0,231.8,254,0,0,0,0,0,0,0,231.8,766,0,0.000654641,0.000988617,0.000439949,0.0150222,-0.00942722,0.000829849,-8.0185e-05,0.000837364,0.0470985,0.000640716,-0.0002948,0.00833919,-0.0209692,0.000524559,0.000391045,-0.00772003
51,0,0,0,0,0,0,0,231.8,254,0,0,0,0,0,0,0,231.8,766,0,0.000845375,0.000912323,0.00116474,0.0171203,-0.00931278,0.000486526,0.00098793,0.000646629,-0.0388848,0.00186142,0.00199402,0.00914028,-0.0196722,0.00144009,0.00191692,-0.00871185
51,1,0,0,0,0,0,0,231.8,254,0,0,0,0,0,0,0,231.8,766,0,0.000578347,0.000530853,-0.000590019,0.0159759,-0.00671879,0.00105873,0.000644607,0.000722923,-0.0323235,0.000564422,-0.000943298,0.0118106,-0.0210837,0.000677147,0.000619926,-0.00741486
51,2,0,0,0,0,0,0,231.8,254,0,0,0,0,0,0,0,231.8,766,0,0.000997963,0.000797882,-5.59617e-05,0.0155182,-0.00675694,0.000524673,0.000148697,7.44248e-05,0.061518,0.000144806,0.000315552,0.0182574,-0.021427,0.00105862,0.00138287,-0.0093222
51,3,0,0,0,0,0,0,231.8,254,0,0,0,0,0,0,0,231.8,766,0,0.00115055,0.00106491,0.00181324,0.017044,-0.00633732,0.00105873,0.000339432,0.000188866,-0.0305688,0.00182327,0.00111664,0.0152438,-0.0199011,0.000600853,0.00069622,-0.00726227
51,4,0,0,0,0,0,0,231.8,254,0,0,0,0,0,0,0,231.8,766,0,-0.000260887,-0.00107132,5.84793e-05,0.0155944,-0.00576511,-0.000505295,0.000148697,0.000150719,-0.0135934,6.85118e-05,1.03759e-05,0.013222,-0.0222662,-0.000314674,4.77219e-05,-0.00825409
51,5,0,0,0,0,0,0,231.8,254,0,0,0,0,0,0,0,231.8,766,0,0.000692788,0.000721588,0.000211067,0.0162048,-0.00298038,0.00113502,0.00114052,0.000570335,0.121905,0.00140366,0.000773315,0.0124591,-0.0199393,0.00189785,0.00180248,-0.00730042
51,6,0,0,0,0,0,0,231.8,254,0,0,0,0,0,0,0,231.8,766,0,8.2436e-05,0.000530853,0.000821419,0.0156707,-0.00149265,0.00109688,0.000301285,0.00121883,-0.0214516,0.00106033,0.000201111,0.0146334,-0.0215796,-0.000123939,0.000925102,-0.00867371
51,7,0,0,0,0,0,0,231.8,254,0,0,0,0,0,0,0,231.8,766,0,0.000807228,0.000912323,-0.000857048,0.01548,-0.000844154,0.000410232,0.000224991,0.000417748,-0.0192391,0.000984039,0.000201111,0.0120013,-0.0205878,0.00109676,0.00119213,-0.00813965
51,8,0,0,0,0,0,0,231.8,254,0,0,0,0,0,0,0,231.8,766,0,0.00115055,0.000645294,-5.59617e-05,0.0153274,-0.000157509,0.000372085,-4.2038e-05,0.00026516,0.132204,0.000411835,0.00058258,0.00982693,-0.0219992,0.000333824,-6.6719e-05,-0.00794891
