Devices
1000
,,North - Force,,,North - Moment,,,North - CoP,,,South - Force,,,South - Moment,,,South - CoP,,,EMG - Voltage,,,,,,,,,,,,,,,,
Frame,Sub Frame,Fx,Fy,Fz,Mx,My,Mz,Cx,Cy,Cz,Fx,Fy,Fz,Mx,My,Mz,Cx,Cy,Cz,1,2,3,TA,5,Sol,7,8,VL,RF,BF,GlutMed,GlutMax,14,MedGast,16
,,N,N,N,N.mm,N.mm,N.mm,mm,mm,mm,N,N,N,N.mm,N.mm,N.mm,mm,mm,mm,V,V,V,V,V,V,V,V,V,V,V,V,V,V,V,V
1,0,0,0,0,0,0,0,231.8,254,0,0,0,0,0,0,0,231.8,766,0,0.00191349,0.0011412,0.00055439,0.0168151,0.0041531,0.00124947,0.00159828,0.000570335,-0.0516259,0.00106033,0.00126923,0.0135653,-0.0207404,0.00136379,0.00123028,-0.00985626
1,1,0,0,0,0,0,0,231.8,254,0,0,0,0,0,0,0,231.8,766,0,-0.000947532,0.000111236,0.000287361,0.0154419,0.00590786,0.000257645,-0.000766831,-0.00049778,0.0334418,0.000526275,-0.000905151,0.0137179,-0.0213507,-4.76455e-05,-0.000600777,-0.00974182
1,2,0,0,0,0,0,0,231.8,254,0,0,0,0,0,0,0,231.8,766,0,0.000120583,-0.00030838,0.000249214,0.0162811,0.00464901,-0.000123825,0.000873489,0.000455895,0.0717033,0.0002211,0.00123108,0.0159304,-0.0209311,-0.000200233,0.00206951,-0.00844482
1,3,0,0,0,0,0,0,231.8,254,0,0,0,0,0,0,0,231.8,766,0,-0.000146446,-0.000346527,-0.000246697,0.0166244,0.00319942,0.000143204,0.000720901,-0.000345192,-0.0553643,0.000526275,0.00058258,0.0163501,-0.0208167,0.00105862,0.000734367,-0.00970367
1,4,0,0,0,0,0,0,231.8,254,0,0,0,0,0,0,0,231.8,766,0,0.000845375,-0.000117646,0.000859566,0.0155182,0.00552639,0.000105057,0.000148697,-1.86916e-06,0.0330604,-0.000732575,-0.000599976,0.0162738,-0.0214651,0.000867882,0.00168804,-0.00936035
1,5,0,0,0,0,0,0,231.8,254,0,0,0,0,0,0,0,231.8,766,0,0.000311318,0.000836029,0.000592537,0.0157852,0.00648006,-8.56782e-05,-0.000194626,0.000646629,0.0793327,0.000526275,0.000506287,0.0160067,-0.0213126,0.000448265,0.000162163,-0.00905518
1,6,0,0,0,0,0,0,231.8,254,0,0,0,0,0,0,0,231.8,766,0,0.0011887,0.000340118,0.00124104,0.01651,0.00712856,0.00102058,0.000301285,0.000188866,-0.0614297,0.00174698,0.000887756,0.021538,-0.0205115,0.000562706,-0.000257454,-0.0081015
1,7,0,0,0,0,0,0,231.8,254,0,0,0,0,0,0,0,231.8,766,0,0.000921669,-0.00019394,0.000668831,0.0163192,0.00552639,0.000791702,0.000530167,0.000951805,-0.0309121,-0.000732575,0.000658874,0.0170367,-0.0207022,0.00124935,0.00115398,-0.00928406
1,8,0,0,0,0,0,0,231.8,254,0,0,0,0,0,0,0,231.8,766,0,0.000997963,0.000378265,5.84793e-05,0.0162048,0.00236019,0.000715408,0.000759048,0.000722923,-0.00954979,0.00102219,0.000773315,0.010361,-0.0199011,0.0012112,0.00130657,-0.00886444
1,9,0,0,0,0,0,0,231.8,254,0,0,0,0,0,0,0,231.8,766,0,0.000769082,0.00095047,0.00146992,0.0160904,0.00361904,0.000181351,0.000835342,-1.86916e-06,0.0632346,0.00186142,-0.000332947,0.0140231,-0.020397,0.000867882,0.00126843,-0.00825409
2,0,0,0,0,0,0,0,231.8,254,0,0,0,0,0,0,0,231.8,766,0,0.00160831,-0.000232087,-0.00020855,0.0163955,0.000643578,6.69097e-05,0.00133125,0.000455895,-0.00150078,0.000449982,0.00046814,0.0171511,-0.0210837,0.000944176,0.000658073,-0.00936035
2,1,0,0,0,0,0,0,231.8,254,0,0,0,0,0,0,0,231.8,766,0,0.000692788,-0.000918732,0.00127918,0.0158996,0.00182613,0.000295792,0.00178902,-4.00161e-05,-0.0375115,-0.000427399,0.000277405,0.0189822,-0.0206641,0.000829735,0.000543633,-0.00848297
2,2,0,0,0,0,0,0,231.8,254,0,0,0,0,0,0,0,231.8,766,0,0.00172276,0.000912323,0.00112659,0.0164337,0.0048016,0.00117317,0.000797195,0.00114254,0.0722755,0.00235733,0.00107849,0.0132983,-0.0204733,0.00140194,0.00111584,-0.00813965
2,3,0,0,0,0,0,0,231.8,254,0,0,0,0,0,0,0,231.8,766,0,-0.000337181,7.30893e-05,0.000630684,0.0172729,0.00384792,0.000639114,0.000415726,0.000608482,-0.00604027,0.000411835,0.00107849,0.00780514,-0.0219992,0.000600853,0.00138287,-0.0093222
2,4,0,0,0,0,0,0,231.8,254,0,0,0,0,0,0,0,231.8,766,0,0.000578347,-3.20468e-06,0.000401802,0.0156326,0.00495419,0.000639114,7.24029e-05,-0.000268898,-0.0339639,0.000488129,0.000391846,0.0147479,-0.0211218,0.000219383,0.00245098,-0.00936035
2,5,0,0,0,0,0,0,231.8,254,0,0,0,0,0,0,0,231.8,766,0,0.00141758,0.000492706,0.000821419,0.0160522,0.00155911,0.000639114,0.00148384,0.00114254,0.0860465,0.000335541,0.000773315,0.0176471,-0.0223807,0.000143089,0.00119213,-0.00977997
2,6,0,0,0,0,0,0,231.8,254,0,0,0,0,0,0,0,231.8,766,0,0.000387612,3.49423e-05,0.000401802,0.0163955,0.00308498,0.000333939,0.000263138,-0.000383339,-8.93399e-05,0.000755157,0.0010022,0.01841,-0.0210455,0.000753441,0.00138287,-0.00981812
2,7,0,0,0,0,0,0,231.8,254,0,0,0,0,0,0,0,231.8,766,0,0.00149387,7.30893e-05,0.000630684,0.0159378,0.00449642,0.000600967,7.24029e-05,0.000799217,-0.0362145,0.0002211,0.00104034,0.0140994,-0.0207785,0.000906029,0.00115398,-0.00798706
2,8,0,0,0,0,0,0,231.8,254,0,0,0,0,0,0,0,231.8,766,0,0.00145573,0.00110306,0.00108845,0.0174636,0.0029324,0.00109688,0.00114052,0.00076107,0.090052,0.000793304,0.000620727,0.0177233,-0.0198248,0.001936,0.00020031,-0.00802521
2,9,0,0,0,0,0,0,231.8,254,0,0,0,0,0,0,0,231.8,766,0,0.00164646,0.000874176,0.000897713,0.0163192,0.00438198,0.000829849,0.00011055,0.00026516,0.00498421,0.000373688,0.000697021,0.0161593,-0.0204733,0.00113491,0.000391045,-0.00829224
3,0,0,0,0,0,0,0,231.8,254,0,0,0,0,0,0,0,231.8,766,0,8.2436e-05,0.000530853,0.000974007,0.0160141,0.00400051,0.000448379,0.000263138,0.000722923,-0.0655877,0.000602569,0.000201111,0.0138705,-0.0216559,0.000448265,0.000886955,-0.00878815
3,1,0,0,0,0,0,0,231.8,254,0,0,0,0,0,0,0,231.8,766,0,8.2436e-05,0.000721588,0.000592537,0.0160141,0.00655636,0.000372085,-0.000385361,0.000341454,-0.0125253,0.000793304,0.000620727,0.0103228,-0.021427,0.000639,-0.000295601,-0.00783447
3,2,0,0,0,0,0,0,231.8,254,0,0,0,0,0,0,0,231.8,766,0,0.000463906,0.000759735,0.000821419,0.0152511,0.00678524,0.000295792,0.000453873,0.000684776,0.0349677,0.000335541,0.000239258,0.0104754,-0.0213889,0.000715294,0.000963249,-0.00901703
3,3,0,0,0,0,0,0,231.8,254,0,0,0,0,0,0,0,231.8,766,0,0.000235024,0.000530853,0.00055439,0.0166244,0.00705227,0.000372085,0.00129311,-1.86916e-06,0.180231,0.00178513,-6.59181e-05,0.011925,-0.0202063,0.00151638,0.00191692,-0.00905518
3,4,0,0,0,0,0,0,231.8,254,0,0,0,0,0,0,0,231.8,766,0,0.000692788,0.000683441,0.00101215,0.0168151,0.00812038,0.00128761,0.00102608,0.00110439,0.171267,0.00159439,0.00123108,0.0142138,-0.0200537,0.00163082,0.00214581,-0.00813965
3,5,0,0,0,0,0,0,231.8,254,0,0,0,0,0,0,0,231.8,766,0,0.00179905,0.00156082,0.000211067,0.0170059,0.00487789,0.00056282,0.00060646,0.000646629,0.137812,0.000907745,0.000811462,0.0137179,-0.021427,0.000867882,0.000391045,-0.00848297
3,6,0,0,0,0,0,0,231.8,254,0,0,0,0,0,0,0,231.8,766,0,-0.000299034,0.000759735,0.000897713,0.015747,0.00266537,-0.00031456,0.00011055,0.000341454,0.0129188,0.000373688,0.00134552,0.0150912,-0.0209692,0.000639,4.77219e-05,-0.00783447
3,7,0,0,0,0,0,0,231.8,254,0,0,0,0,0,0,0,231.8,766,0,0.00137943,0.000492706,-0.000284843,0.0160522,0.0022839,0.000372085,0.000911636,0.00121883,-0.127042,0.000564422,0.000162964,0.0146334,-0.0218466,-0.000543556,0.00107769,-0.00852112
3,8,0,0,0,0,0,0,231.8,254,0,0,0,0,0,0,0,231.8,766,0,0.000692788,0.00106491,0.00124104,0.0165481,0.00426754,0.00117317,0.000835342,0.00114254,-0.0126015,0.00071701,0.000315552,0.0156253,-0.0210074,0.00170712,0.00130657,-0.00867371
3,9,0,0,0,0,0,0,231.8,254,0,0,0,0,0,0,0,231.8,766,0,0.00134129,0.0011412,0.0010503,0.0163574,0.00510677,0.000753555,0.00102608,0.000951805,0.0261939,0.00071701,0.00058258,0.012192,-0.0204352,0.000982323,0.00138287,-0.00756744
4,0,0,0,0,0,0,0,231.8,254,0,0,0,0,0,0,0,231.8,766,0,0.000997963,0.000378265,0.000821419,0.0164718,0.00743374,0.000410232,0.000377579,0.00076107,-0.105756,-0.000236664,0.000353699,0.011925,-0.0219992,0.000295677,0.000772514,-0.00890259
4,1,0,0,0,0,0,0,231.8,254,0,0,0,0,0,0,0,231.8,766,0,0.00172276,0.000759735,0.00055439,0.0160141,0.00579342,0.00117317,0.00060646,0.000837364,-0.00588768,0.00136551,0.000239258,0.0137179,-0.0207022,0.00105862,0.00161175,-0.00798706
4,2,0,0,0,0,0,0,231.8,254,0,0,0,0,0,0,0,231.8,766,0,0.000692788,0.00140823,0.0010503,0.015747,0.00377163,0.000486526,0.000568314,0.000227013,0.0448859,0.000449982,0.000353699,0.0132983,-0.0218466,-0.000429115,-0.000257454,-0.00905518
4,3,0,0,0,0,0,0,231.8,254,0,0,0,0,0,0,0,231.8,766,0,0.000807228,0.000721588,-0.000437431,0.0155563,0.0040768,0.000410232,-0.000537949,3.62778e-05,-0.097593,0.000945892,-0.000332947,0.014252,-0.0209692,0.000333824,-0.000524483,-0.00989441
4,4,0,0,0,0,0,0,231.8,254,0,0,0,0,0,0,0,231.8,766,0,0.0011124,0.000416412,0.00173695,0.0163955,0.00442013,0.000333939,0.000759048,0.000379601,-0.060743,-0.000236664,0.000811462,0.0163501,-0.0212744,0.000562706,-0.000410042,-0.00993256
4,5,0,0,0,0,0,0,231.8,254,0,0,0,0,0,0,0,231.8,766,0,0.000120583,0.000225677,-0.000857048,0.0166244,0.00297054,0.000333939,0.000377579,0.000188866,-0.0331246,-0.000274811,0.00058258,0.0182193,-0.0205115,0.000867882,0.00176434,-0.00901703
4,6,0,0,0,0,0,0,231.8,254,0,0,0,0,0,0,0,231.8,766,0,0.000769082,0.00137009,0.00116474,0.0155944,0.00438198,0.00094429,0.00060646,0.000417748,0.0425208,0.00170883,0.000239258,0.012955,-0.0210455,0.000982323,-0.000295601,-0.00756744
4,7,0,0,0,0,0,0,231.8,254,0,0,0,0,0,0,0,231.8,766,0,0.00157017,0.000912323,2.03323e-05,0.0158615,0.00483974,-0.000429001,0.000835342,0.00129513,-0.0231301,0.000259247,0.000201111,0.0123065,-0.0213889,0.000104942,0.000925102,-0.00791077
4,8,0,0,0,0,0,0,231.8,254,0,0,0,0,0,0,0,231.8,766,0,0.000578347,0.00125565,0.00150806,0.0169677,0.00686153,0.000639114,0.00117867,0.000341454,-0.0486123,0.000831451,0.00104034,0.0133746,-0.0195578,0.00189785,0.00214581,-0.00909332
4,9,0,0,0,0,0,0,231.8,254,0,0,0,0,0,0,0,231.8,766,0,0.00115055,0.000759735,0.00108845,0.0166244,0.00579342,0.000677261,0.000759048,0.000799217,0.0619376,0.0002211,0.00119293,0.0136798,-0.0204352,0.000104942,0.000963249,-0.00836853
5,0,0,0,0,0,0,0,231.8,254,0,0,0,0,0,0,0,231.8,766,0,0.000578347,0.000149383,-5.59617e-05,0.0144119,0.00411495,0.000333939,0.000301285,-0.000421486,-0.0146233,0.000488129,0.000849609,0.0143283,-0.0213889,0.000448265,0.00126843,-0.00836853
5,1,0,0,0,0,0,0,231.8,254,0,0,0,0,0,0,0,231.8,766,0,0.000578347,-0.000232087,0.000592537,0.0158233,0.00548824,0.000372085,0.00110237,0.000227013,-0.0393426,0.000678863,0.000315552,0.0132602,-0.020397,0.00105862,-0.000219307,-0.00726227
5,2,0,0,0,0,0,0,231.8,254,0,0,0,0,0,0,0,231.8,766,0,0.000959816,0.00140823,0.00143177,0.0166244,0.0041531,0.000829849,0.000835342,0.000989952,0.0819648,0.00193771,0.000811462,0.0164264,-0.0199393,0.001936,0.00226025,-0.00676636
5,3,0,0,0,0,0,0,231.8,254,0,0,0,0,0,0,0,231.8,766,0,0.000997963,0.000912323,0.0010503,0.0168914,0.00426754,0.000181351,0.00060646,0.000913658,-0.00310295,0.000869598,0.000429993,0.0189059,-0.0216559,-0.000162086,0.00149731,-0.00691895
5,4,0,0,0,0,0,0,231.8,254,0,0,0,0,0,0,0,231.8,766,0,0.00160831,0.00106491,0.00108845,0.0167389,0.00010952,0.00140205,0.000415726,0.000227013,-0.0357949,0.000373688,0.000735168,0.0187915,-0.0213507,0.000562706,0.000543633,-0.00749115
5,5,0,0,0,0,0,0,231.8,254,0,0,0,0,0,0,0,231.8,766,0,0.00107426,0.000683441,0.000974007,0.0158233,-0.00309483,0.000295792,0.00117867,0.000150719,0.0902808,0.000678863,0.000506287,0.0189822,-0.0208548,0.000944176,0.000619926,-0.00875
5,6,0,0,0,0,0,0,231.8,254,0,0,0,0,0,0,0,231.8,766,0,0.000578347,-0.000384674,0.000668831,0.0158996,-0.00134006,-4.75312e-05,0.000301285,0.000150719,0.00559456,0.00147995,-6.59181e-05,0.0191729,-0.0216177,0.000371971,-0.000524483,-0.00905518
5,7,0,0,0,0,0,0,231.8,254,0,0,0,0,0,0,0,231.8,766,0,0.00172276,0.00095047,5.84793e-05,0.0160141,-0.00446812,0.000715408,0.00060646,-1.86916e-06,-0.0605904,0.000373688,0.00096405,0.0153582,-0.02116,0.000448265,0.000734367,-0.00848297
5,8,0,0,0,0,0,0,231.8,254,0,0,0,0,0,0,0,231.8,766,0,0.000959816,0.0011412,0.000363655,0.0158615,-0.000882301,-0.000123825,0.00060646,0.00076107,-0.00897758,0.000755157,-0.00113403,0.0153964,-0.0207022,0.000715294,0.000276604,-0.00901703
5,9,0,0,0,0,0,0,231.8,254,0,0,0,0,0,0,0,231.8,766,0,0.000730935,0.000912323,0.00112659,0.0165481,-0.00114933,0.00117317,0.000949783,0.00110439,0.0236381,0.000793304,4.85228e-05,0.0159304,-0.0208929,0.00117306,0.00123028,-0.00787262
6,0,0,0,0,0,0,0,231.8,254,0,0,0,0,0,0,0,231.8,766,0,0.000807228,0.000225677,0.00055439,0.01548,0.000758019,-0.000734177,0.000835342,0.000417748,0.062548,0.000526275,-0.000409241,0.0174182,-0.0219611,-8.57925e-05,0.000886955,-0.00768188
6,1,0,0,0,0,0,0,231.8,254,0,0,0,0,0,0,0,231.8,766,0,0.00187534,0.00102676,0.00101215,0.0159378,-0.000996742,0.00121132,0.000301285,0.000112572,-0.0494515,0.00106033,0.00115479,0.0177996,-0.0202444,0.00170712,8.58689e-05,-0.00974182
6,2,0,0,0,0,0,0,231.8,254,0,0,0,0,0,0,0,231.8,766,0,-0.000566063,7.30893e-05,0.000821419,0.0160522,-0.000882301,0.000333939,0.000797195,7.44248e-05,0.0315345,-0.000236664,-0.000104065,0.0151675,-0.0211981,-0.000352821,0.00103954,-0.00947479
6,3,0,0,0,0,0,0,231.8,254,0,0,0,0,0,0,0,231.8,766,0,0.000997963,0.000225677,0.000249214,0.0163574,0.00392422,0.000906143,0.000568314,0.00144772,0.0618995,0.000831451,-0.000371094,0.0155108,-0.0208548,0.00174526,0.00103954,-0.00760559
6,4,0,0,0,0,0,0,231.8,254,0,0,0,0,0,0,0,231.8,766,0,0.000921669,0.000988617,0.000134773,0.0169677,0.00552639,0.00132576,0.00114052,0.000837364,-0.0448739,0.000564422,0.000773315,0.0133746,-0.0205878,0.00216488,0.00130657,-0.00867371
6,5,0,0,0,0,0,0,231.8,254,0,0,0,0,0,0,0,231.8,766,0,0.000959816,0.000149383,0.000363655,0.0152893,0.00697597,2.87627e-05,0.00049202,0.000303307,0.0387061,-0.000198517,-0.000104065,0.013222,-0.0217703,0.000181236,-0.000982246,-0.00890259
6,6,0,0,0,0,0,0,231.8,254,0,0,0,0,0,0,0,231.8,766,0,0.00130314,0.000645294,0.000783272,0.0166244,0.00686153,2.87627e-05,0.000720901,0.000608482,0.0768913,0.000869598,-0.000409241,0.0127642,-0.019863,0.00102047,0.0010014,-0.0081778
6,7,0,0,0,0,0,0,231.8,254,0,0,0,0,0,0,0,231.8,766,0,0.000845375,0.000797882,0.000668831,0.0164337,0.00880703,0.000333939,0.000339432,0.00076107,-0.048803,0.000793304,0.000544433,0.0117343,-0.0204733,0.00144009,0.000543633,-0.00806335
6,8,0,0,0,0,0,0,231.8,254,0,0,0,0,0,0,0,231.8,766,0,-0.000375328,0.000111236,0.000439949,0.0159378,0.00960812,0.000372085,-3.89107e-06,0.000112572,0.0371803,0.00102219,0.000849609,0.0149386,-0.0204733,0.00102047,0.000238457,-0.00951294
6,9,0,0,0,0,0,0,231.8,254,0,0,0,0,0,0,0,231.8,766,0,0.000349465,0.000225677,0.000401802,0.0166626,0.0112484,0.000982437,0.000873489,0.000455895,0.0835288,-0.000847016,0.000697021,0.0142138,-0.0205878,0.00117306,8.58689e-05,-0.0093222
7,0,0,0,0,0,0,0,231.8,254,0,0,0,0,0,0,0,231.8,766,0,0.000120583,0.0012175,0.00127918,0.016777,0.0110577,0.0014402,0.00121681,0.000455895,-0.0554025,0.00163254,1.03759e-05,0.0162738,-0.0205878,0.000333824,0.000886955,-0.00836853
7,1,0,0,0,0,0,0,231.8,254,0,0,0,0,0,0,0,231.8,766,0,0.00107426,0.000340118,9.66262e-05,0.01651,0.0105999,0.00056282,0.00011055,-1.86916e-06,-0.025953,-0.000198517,0.000544433,0.0149768,-0.0218466,0.000639,-0.000486336,-0.00852112
7,2,0,0,0,0,0,0,231.8,254,0,0,0,0,0,0,0,231.8,766,0,0.00015873,0.000340118,0.000783272,0.0162429,0.00880703,0.000105057,0.000148697,0.000684776,-0.00417107,-8.40761e-05,0.000506287,0.012192,-0.0208548,0.000791588,0.000352898,-0.00848297
7,3,0,0,0,0,0,0,231.8,254,0,0,0,0,0,0,0,231.8,766,0,0.00115055,0.00167526,0.00131733,0.0158233,0.00884518,0.00113502,0.000568314,0.000989952,0.0651801,0.00163254,1.03759e-05,0.00898769,-0.0201682,0.00117306,0.000886955,-0.00691895
7,4,0,0,0,0,0,0,231.8,254,0,0,0,0,0,0,0,231.8,766,0,-0.000146446,0.000111236,0.000668831,0.0162429,0.0100277,0.000791702,0.00129311,0.000341454,-0.000585251,0.000907745,0.000925903,0.0134509,-0.0203207,0.00151638,0.000429192,-0.00920776
7,5,0,0,0,0,0,0,231.8,254,0,0,0,0,0,0,0,231.8,766,0,0.000616494,-0.000232087,0.000401802,0.0153656,0.00564083,0.000333939,-0.000499802,0.000341454,-0.0317895,0.000526275,-0.000371094,0.0136416,-0.0207404,0.000333824,-0.000333748,-0.00901703
7,6,0,0,0,0,0,0,231.8,254,0,0,0,0,0,0,0,231.8,766,0,6.14207e-06,0.000645294,0.000439949,0.0164337,0.00697597,0.00124947,0.00114052,0.00175289,0.0745643,0.00155624,0.000239258,0.0201648,-0.02013,0.00113491,0.000810661,-0.00848297
7,7,0,0,0,0,0,0,231.8,254,0,0,0,0,0,0,0,231.8,766,0,0.000578347,0.000492706,0.000287361,0.0162048,0.00636562,0.00163094,0.00125496,0.000799217,-0.00428551,0.00117477,-2.77711e-05,0.0212329,-0.0208929,0.00151638,0.00123028,-0.00783447
7,8,0,0,0,0,0,0,231.8,254,0,0,0,0,0,0,0,231.8,766,0,0.000921669,0.000607147,0.00055439,0.015213,0.00644192,-0.00031456,-0.000690537,-7.81631e-05,-0.029081,-8.40761e-05,0.000124817,0.0228732,-0.0223807,0.000181236,0.000848808,-0.00920776
7,9,0,0,0,0,0,0,231.8,254,0,0,0,0,0,0,0,231.8,766,0,0.000959816,0.000988617,0.000401802,0.0167389,0.00762447,0.00056282,0.00197975,0.000188866,0.0873054,0.00186142,-0.000409241,0.0170749,-0.0204733,0.000715294,8.58689e-05,-0.00825409
8,0,0,0,0,0,0,0,231.8,254,0,0,0,0,0,0,0,231.8,766,0,0.000959816,0.00129379,0.000401802,0.0159759,0.00934109,0.000715408,7.24029e-05,0.00140957,0.0013221,0.00071701,0.000391846,0.0112002,-0.0206641,0.00147823,0.000467339,-0.00836853
8,1,0,0,0,0,0,0,231.8,254,0,0,0,0,0,0,0,231.8,766,0,0.000845375,0.00095047,0.000706978,0.0171203,0.00876888,0.000372085,0.000835342,0.000684776,-0.0343453,0.000259247,-0.000218506,0.0144809,-0.0210074,0.000295677,0.00107769,-0.00897888
8,2,0,0,0,0,0,0,231.8,254,0,0,0,0,0,0,0,231.8,766,0,0.000387612,0.000492706,0.00108845,0.0157089,0.00876888,0.00166908,0.000720901,-0.000459633,0.0919593,0.00155624,-0.0002948,0.0157397,-0.0194052,0.00174526,0.00168804,-0.00844482
8,3,0,0,0,0,0,0,231.8,254,0,0,0,0,0,0,0,231.8,766,0,-7.01519e-05,0.00125565,0.000401802,0.0163574,0.00560268,0.000448379,0.00060646,-0.000612221,0.00593788,0.000869598,0.0010022,0.0113528,-0.0210074,-0.000276527,0.000619926,-0.00958923
8,4,0,0,0,0,0,0,231.8,254,0,0,0,0,0,0,0,231.8,766,0,8.2436e-05,0.00110306,0.00135548,0.0168914,0.00449642,0.000372085,0.00098793,-7.81631e-05,-0.0634515,0.000793304,0.000735168,0.0140994,-0.0209311,0.000524559,0.000505486,-0.00916962
8,5,0,0,0,0,0,0,231.8,254,0,0,0,0,0,0,0,231.8,766,0,0.000311318,0.000378265,0.000974007,0.0167389,0.00331387,0.000486526,-0.000881271,0.000608482,-0.0119912,0.000831451,0.000849609,0.0177233,-0.0205115,0.00102047,0.00103954,-0.00806335
8,6,0,0,0,0,0,0,231.8,254,0,0,0,0,0,0,0,231.8,766,0,-3.20049e-05,0.000340118,0.00093586,0.0163955,0.00274166,0.000524673,0.000568314,-1.86916e-06,0.0221503,0.000869598,0.00161255,0.0170749,-0.0211981,0.00151638,0.00134472,-0.00844482
8,7,0,0,0,0,0,0,231.8,254,0,0,0,0,0,0,0,231.8,766,0,0.00015873,-0.000499115,0.000668831,0.0161285,-0.000653419,0.00102058,0.00133125,3.62778e-05,0.0601066,0.000411835,-0.000790711,0.0157016,-0.020397,0.000791588,0.000810661,-0.00829224
8,8,0,0,0,0,0,0,231.8,254,0,0,0,0,0,0,0,231.8,766,0,0.000997963,0.000454559,0.000745125,0.0161285,-0.00263706,0.00109688,0.0013694,0.000303307,-0.0545251,0.00132736,0.000697021,0.0139468,-0.0187949,0.0018597,0.00103954,-0.00840668
8,9,0,0,0,0,0,0,231.8,254,0,0,0,0,0,0,0,231.8,766,0,0.000578347,0.000607147,0.000745125,0.0163574,-0.00378147,0.000295792,0.00125496,0.000150719,0.0281013,0.0015181,-0.000332947,0.0177996,-0.0208167,0.00025753,0.000543633,-0.00764374
9,0,0,0,0,0,0,0,231.8,254,0,0,0,0,0,0,0,231.8,766,0,0.000730935,0.000988617,0.000821419,0.0156707,-0.00393406,0.000486526,-0.00027092,0.000150719,0.0568259,0.000144806,-0.000104065,0.0148242,-0.0206259,0.000104942,-0.000371895,-0.00821594
9,1,0,0,0,0,0,0,231.8,254,0,0,0,0,0,0,0,231.8,766,0,-0.000527916,0.00137009,0.00093586,0.0161666,-0.00271336,0.000791702,0.00121681,7.44248e-05,-0.052961,0.00220474,0.000239258,0.0123446,-0.0210455,0.0012112,0.000543633,-0.00924591
9,2,0,0,0,0,0,0,231.8,254,0,0,0,0,0,0,0,231.8,766,0,0.000730935,0.000569,0.00112659,0.0169677,-0.00107304,0.00132576,0.000873489,-0.00011631,0.0319541,0.000907745,-0.000409241,0.0122302,-0.0210074,0.000753441,0.00107769,-0.00913147
9,3,0,0,0,0,0,0,231.8,254,0,0,0,0,0,0,0,231.8,766,0,6.14207e-06,0.000797882,0.000478096,0.0168533,-0.00107304,0.000486526,0.000530167,0.000570335,0.0713218,-0.000427399,0.000620727,0.0183718,-0.02116,0.000753441,0.000734367,-0.00909332
9,4,0,0,0,0,0,0,231.8,254,0,0,0,0,0,0,0,231.8,766,0,0.000883522,0.000645294,0.000363655,0.0156707,-0.00454441,0.000791702,0.00133125,0.000494041,-0.055555,0.000640716,-0.000905151,0.0169604,-0.0207404,0.0012112,0.00020031,-0.00802521
9,5,0,0,0,0,0,0,231.8,254,0,0,0,0,0,0,0,231.8,766,0,0.00015873,0.00106491,0.000974007,0.0160141,-0.0053455,0.00102058,0.00121681,0.000112572,0.0324119,0.00117477,0.000353699,0.015816,-0.0210074,0.000829735,0.0010014,-0.00928406
9,6,0,0,0,0,0,0,231.8,254,0,0,0,0,0,0,0,231.8,766,0,0.0005402,3.49423e-05,0.000134773,0.0160141,-0.00271336,-0.000161972,0.00125496,0.000227013,0.0787605,0.000297394,0.000506287,0.0172656,-0.0229529,0.00159267,0.000391045,-0.00920776
9,7,0,0,0,0,0,0,231.8,254,0,0,0,0,0,0,0,231.8,766,0,0.00115055,0.00106491,0.00135548,0.0170059,0.000948753,0.000600967,0.00102608,0.000608482,-0.0625741,0.000869598,0.00107849,0.0168078,-0.0208548,0.000715294,0.00111584,-0.00669006
9,8,0,0,0,0,0,0,231.8,254,0,0,0,0,0,0,0,231.8,766,0,-0.000108299,0.000530853,0.00112659,0.016777,0.000567284,0.000829849,0.00121681,0.00026516,-0.0311028,0.000793304,0.000620727,0.0194781,-0.0212363,0.000562706,9.57493e-06,-0.00848297
9,9,0,0,0,0,0,0,231.8,254,0,0,0,0,0,0,0,231.8,766,0,0.000387612,-0.000384674,0.000821419,0.0170059,0.00323757,0.000867996,0.000568314,-0.000230751,-0.0100076,0.00109848,0.00119293,0.0165026,-0.0206641,0.000906029,0.000429192,-0.0093222
10,0,0,0,0,0,0,0,231.8,254,0,0,0,0,0,0,0,231.8,766,0,6.14207e-06,0.000301971,0.000478096,0.0167389,0.0060223,0.000867996,0.000568314,-7.81631e-05,0.0627006,0.000411835,0.000735168,0.0165408,-0.0199011,0.00140194,0.00153545,-0.00920776
10,1,0,0,0,0,0,0,231.8,254,0,0,0,0,0,0,0,231.8,766,0,0.00115055,0.000301971,5.84793e-05,0.0161285,0.0053738,0.000791702,0.000873489,0.00026516,-0.00172966,0.000182953,0.000315552,0.015549,-0.0208548,0.000791588,-6.6719e-05,-0.00966553
10,2,0,0,0,0,0,0,231.8,254,0,0,0,0,0,0,0,231.8,766,0,0.00141758,0.00163712,0.00211842,0.0163955,0.00670895,0.00109688,0.00167458,0.00129513,-0.0371682,0.00167068,4.85228e-05,0.0160449,-0.019863,0.0012112,0.000848808,-0.00737671
10,3,0,0,0,0,0,0,231.8,254,0,0,0,0,0,0,0,231.8,766,0,0.000616494,0.000797882,0.00162251,0.0173492,0.00949368,-0.000467148,0.000377579,0.00076107,0.072924,0.000602569,0.0016507,0.0137179,-0.0212744,0.000600853,0.00149731,-0.00867371
10,4,0,0,0,0,0,0,231.8,254,0,0,0,0,0,0,0,231.8,766,0,6.14207e-06,0.000492706,0.00101215,0.0155944,0.00926479,0.000333939,-8.0185e-05,-0.000421486,-0.00657433,0.00155624,0.00145996,0.0148242,-0.0203207,-0.000200233,0.000734367,-0.0101233
10,5,0,0,0,0,0,0,231.8,254,0,0,0,0,0,0,0,231.8,766,0,-0.00022274,0.000454559,0.000325508,0.015213,0.00751003,0.00113502,0.000835342,-7.81631e-05,-0.0332391,3.03648e-05,-0.000218506,0.0122683,-0.0208167,6.67954e-05,0.000848808,-0.00821594
10,6,0,0,0,0,0,0,231.8,254,0,0,0,0,0,0,0,231.8,766,0,0.00164646,0.000797882,0.00124104,0.0171203,0.00689968,0.00105873,0.00152199,0.00026516,0.0849403,0.0014418,0.00168884,0.0169986,-0.0197485,0.0025845,0.00180248,-0.00951294
10,7,0,0,0,0,0,0,231.8,254,0,0,0,0,0,0,0,231.8,766,0,0.000997963,0.000454559,0.000859566,0.0168533,0.00586971,0.000906143,0.000949783,0.000112572,0.000101395,0.000526275,-0.000256653,0.0121157,-0.0194052,0.00159267,0.00107769,-0.00848297
10,8,0,0,0,0,0,0,231.8,254,0,0,0,0,0,0,0,231.8,766,0,0.00130314,0.00106491,0.000783272,0.0154037,0.00457272,0.00094429,0.000873489,0.000570335,-0.0370538,0.000793304,0.000429993,0.0112002,-0.0207404,0.000791588,0.00176434,-0.00787262
10,9,0,0,0,0,0,0,231.8,254,0,0,0,0,0,0,0,231.8,766,0,0.000807228,0.00095047,0.00116474,0.0169677,0.00636562,0.000829849,0.00114052,0.00106625,0.0908149,-8.40761e-05,0.00104034,0.011925,-0.0207404,0.000791588,0.000772514,-0.00886444
11,0,0,0,0,0,0,0,231.8,254,0,0,0,0,0,0,0,231.8,766,0,-0.000108299,-0.00019394,0.000439949,0.0150985,0.00720486,-0.000200119,0.000873489,-0.000459633,0.0038398,0.000335541,-0.000447388,0.00898769,-0.0218848,0.000753441,0.000505486,-0.00962738
11,1,0,0,0,0,0,0,231.8,254,0,0,0,0,0,0,0,231.8,766,0,0.000502053,0.00018753,0.000516243,0.0175399,0.00834927,0.000410232,0.000301285,0.000532188,-0.0665795,-0.000198517,0.000658874,0.00547817,-0.0212744,0.000906029,0.000238457,-0.00836853
11,2,0,0,0,0,0,0,231.8,254,0,0,0,0,0,0,0,231.8,766,0,8.2436e-05,-0.000575409,0.00173695,0.0170059,0.00964626,0.000906143,0.000873489,-0.000612221,-0.0135552,-0.000274811,0.00176514,0.00593594,-0.0204352,0.000867882,0.00020031,-0.00813965
11,3,0,0,0,0,0,0,231.8,254,0,0,0,0,0,0,0,231.8,766,0,-0.000833091,0.000149383,0.00108845,0.0160522,0.00739559,0.000791702,0.000186844,0.000227013,0.0146354,0.000106659,1.03759e-05,0.00887325,-0.020397,0.000524559,0.000467339,-0.0101996
11,4,0,0,0,0,0,0,231.8,254,0,0,0,0,0,0,0,231.8,766,0,0.000730935,-0.000117646,0.000134773,0.0164337,0.00686153,0.000257645,0.00152199,0.000684776,0.0657523,0.000488129,0.000239258,0.0114291,-0.0218085,0.000753441,0.000886955,-0.00833038
11,5,0,0,0,0,0,0,231.8,254,0,0,0,0,0,0,0,231.8,766,0,0.000692788,0.000797882,0.00112659,0.0162048,0.00705227,0.00109688,0.00011055,0.000417748,-0.0554025,0.00117477,0.000887756,0.0121539,-0.0197485,0.00109676,0.00123028,-0.007453
11,6,0,0,0,0,0,0,231.8,254,0,0,0,0,0,0,0,231.8,766,0,0.000273171,0.000340118,0.000211067,0.0161285,0.00483974,0.000257645,0.000873489,0.000875511,0.0252021,0.000488129,4.85228e-05,0.0111621,-0.021427,0.000791588,0.000276604,-0.00951294
11,7,0,0,0,0,0,0,231.8,254,0,0,0,0,0,0,0,231.8,766,0,0.00015873,-0.000346527,-5.59617e-05,0.0158233,0.00346645,-0.000200119,0.000415726,3.62778e-05,0.057627,-7.78213e-06,-0.000828858,0.013222,-0.0211981,0.000448265,0.000162163,-0.00806335
11,8,0,0,0,0,0,0,231.8,254,0,0,0,0,0,0,0,231.8,766,0,0.000959816,0.0012175,0.00166065,0.0167007,0.0053738,0.00113502,0.000568314,0.00125698,-0.0539529,0.00117477,0.00138367,0.0141375,-0.0210455,0.00163082,0.00145916,-0.00981812
11,9,0,0,0,0,0,0,231.8,254,0,0,0,0,0,0,0,231.8,766,0,0.000235024,-0.000117646,0.000325508,0.016777,0.00518307,0.000906143,0.00049202,7.44248e-05,0.0319923,0.00163254,0.00161255,0.0177233,-0.0212363,0.0012112,0.00058178,-0.00806335
12,0,0,0,0,0,0,0,231.8,254,0,0,0,0,0,0,0,231.8,766,0,0.000196877,0.000683441,0.000668831,0.0157089,0.00113949,0.000753555,0.000301285,0.000112572,0.0731147,0.000564422,0.00046814,0.0164264,-0.0222281,0.000600853,0.00123028,-0.00871185
12,1,0,0,0,0,0,0,231.8,254,0,0,0,0,0,0,0,231.8,766,0,0.000769082,0.000721588,0.000401802,0.0169296,0.000338402,-0.000200119,-4.2038e-05,0.000722923,-0.0566613,0.000335541,0.000620727,0.0151294,-0.0210074,0.0012875,0.000391045,-0.010047
12,2,0,0,0,0,0,0,231.8,254,0,0,0,0,0,0,0,231.8,766,0,0.000807228,0.000225677,0.000592537,0.0162048,0.00232204,0.000791702,0.000873489,-0.000192604,0.0333656,0.000831451,0.00123108,0.0137179,-0.0207404,0.00117306,0.00191692,-0.00859741
12,3,0,0,0,0,0,0,231.8,254,0,0,0,0,0,0,0,231.8,766,0,0.000235024,0.000301971,2.03323e-05,0.0150985,0.00110134,0.000486526,0.000568314,0.000227013,0.0808967,0.000411835,-0.000142212,0.0102465,-0.021694,2.86484e-05,0.00115398,-0.0103522
12,4,0,0,0,0,0,0,231.8,254,0,0,0,0,0,0,0,231.8,766,0,0.000463906,-4.13517e-05,0.00162251,0.016777,0.000834313,0.00102058,0.00167458,0.00110439,-0.0646722,6.85118e-05,0.00138367,0.0112384,-0.0202063,0.00140194,0.000238457,-0.00890259
12,5,0,0,0,0,0,0,231.8,254,0,0,0,0,0,0,0,231.8,766,0,0.000387612,-0.000117646,0.000859566,0.0161285,0.000872459,0.000524673,0.000415726,0.000722923,-0.0323617,0.000526275,0.000124817,0.014786,-0.0209311,0.000944176,0.000467339,-0.00871185
12,6,0,0,0,0,0,0,231.8,254,0,0,0,0,0,0,0,231.8,766,0,0.00157017,0.000454559,2.03323e-05,0.0171203,0.00197872,0.000448379,0.00102608,0.000951805,-0.00520103,0.0002211,0.00134552,0.0162356,-0.0205878,0.000906029,0.00138287,-0.00852112
12,7,0,0,0,0,0,0,231.8,254,0,0,0,0,0,0,0,231.8,766,0,0.000463906,-7.94986e-05,0.000134773,0.0153274,0.00377163,0.000295792,0.000682754,7.44248e-05,0.115725,-0.000198517,-0.000371094,0.0143664,-0.021427,0.000486412,0.000162163,-0.00909332
12,8,0,0,0,0,0,0,231.8,254,0,0,0,0,0,0,0,231.8,766,0,0.00130314,0.00137009,0.0016988,0.0163955,0.00274166,0.000410232,0.00152199,0.000837364,0.195948,0.000831451,0.00104034,0.0128024,-0.0214651,0.00105862,0.00180248,-0.00836853
12,9,0,0,0,0,0,0,231.8,254,0,0,0,0,0,0,0,231.8,766,0,0.0005402,7.30893e-05,0.00127918,0.0173492,0.00663265,0.000257645,0.00060646,0.000532188,0.154101,0.0014418,0.00210846,0.0101702,-0.0195197,0.00197414,0.000772514,-0.00875
13,0,0,0,0,0,0,0,231.8,254,0,0,0,0,0,0,0,231.8,766,0,-0.00071865,0.000340118,0.000783272,0.0164718,0.0060223,0.000524673,0.000148697,0.000150719,0.0981391,0.000373688,0.00058258,0.0123446,-0.0209692,0.000715294,0.000543633,-0.00920776
13,1,0,0,0,0,0,0,231.8,254,0,0,0,0,0,0,0,231.8,766,0,0.000463906,0.000530853,-0.000246697,0.0162811,0.00216946,6.69097e-05,0.00114052,0.000684776,-0.0861871,-0.000389252,-0.000485535,0.0139087,-0.0210455,0.000486412,0.00161175,-0.00737671
13,2,0,0,0,0,0,0,231.8,254,0,0,0,0,0,0,0,231.8,766,0,0.000845375,0.000683441,0.00185139,0.016777,0.0022839,0.000753555,0.000911636,0.0010281,-0.0912606,0.00201401,0.00046814,0.0157397,-0.0207785,0.00105862,0.00164989,-0.00726227
13,3,0,0,0,0,0,0,231.8,254,0,0,0,0,0,0,0,231.8,766,0,0.00157017,0.00018753,0.000974007,0.0163955,0.00243649,0.00117317,0.00224678,0.000837364,0.0427879,0.000831451,0.00046814,0.0157016,-0.0209311,0.000944176,0.00187878,-0.00825409
13,4,0,0,0,0,0,0,231.8,254,0,0,0,0,0,0,0,231.8,766,0,0.000845375,3.49423e-05,0.000478096,0.0158996,0.00335201,-0.000276413,0.000530167,0.00026516,-0.0513589,0.000449982,0.000391846,0.0180667,-0.0213507,0.000867882,0.00069622,-0.00821594
13,5,0,0,0,0,0,0,231.8,254,0,0,0,0,0,0,0,231.8,766,0,0.000807228,0.00144638,0.00093586,0.0163192,0.00243649,0.000410232,0.00102608,0.000608482,-0.0835931,0.000945892,0.000811462,0.0174945,-0.0205115,0.000600853,0.00138287,-0.00947479
13,6,0,0,0,0,0,0,231.8,254,0,0,0,0,0,0,0,231.8,766,0,0.000425759,0.000836029,0.000821419,0.0165863,0.00266537,0.00121132,0.00125496,0.000684776,0.0551856,0.000526275,0.000697021,0.0175708,-0.0209692,0.00140194,0.000543633,-0.00863556
13,7,0,0,0,0,0,0,231.8,254,0,0,0,0,0,0,0,231.8,766,0,0.000463906,-0.000499115,0.000287361,0.0162048,0.000719872,0.000791702,0.000377579,-0.000192604,-0.0327813,0.000831451,0.000277405,0.0184863,-0.0212744,0.00147823,0.00069622,-0.0075293
13,8,0,0,0,0,0,0,231.8,254,0,0,0,0,0,0,0,231.8,766,0,0.000654641,0.00106491,5.84793e-05,0.0163574,3.32261e-05,0.00117317,0.00106422,0.000112572,-0.0981652,-8.40761e-05,0.000506287,0.0162738,-0.0204352,0.000524559,0.00123028,-0.00779633
13,9,0,0,0,0,0,0,231.8,254,0,0,0,0,0,0,0,231.8,766,0,0.000845375,0.000492706,0.000401802,0.0169677,0.00266537,0.000486526,0.00098793,0.000951805,-0.0401437,0.000488129,0.000162964,0.0126117,-0.0214651,0.00151638,-2.8572e-05,-0.00936035
14,0,0,0,0,0,0,0,231.8,254,0,0,0,0,0,0,0,231.8,766,0,0.00107426,0.00129379,0.00135548,0.0170059,0.000719872,0.000333939,0.000377579,0.000455895,-0.00237816,0.00132736,8.66698e-05,0.01738,-0.02116,0.001936,0.0010014,-0.00794891
14,1,0,0,0,0,0,0,231.8,254,0,0,0,0,0,0,0,231.8,766,0,0.000616494,0.000721588,0.000745125,0.0173492,0.00121578,6.69097e-05,-0.000194626,0.00118069,0.0406135,0.000602569,0.000620727,0.01738,-0.0208929,0.000524559,0.000429192,-0.00676636
14,2,0,0,0,0,0,0,231.8,254,0,0,0,0,0,0,0,231.8,766,0,0.00015873,0.0012175,0.00135548,0.0171203,0.00346645,0.00147835,0.0013694,0.00144772,-0.0727975,0.00132736,0.000544433,0.0171511,-0.0203207,0.00166897,0.000734367,-0.00695709
14,3,0,0,0,0,0,0,231.8,254,0,0,0,0,0,0,0,231.8,766,0,-0.000337181,0.00148453,-9.41086e-05,0.0165863,0.00319942,0.000219498,0.000339432,7.44248e-05,0.0182212,0.00117477,-0.000943298,0.0150531,-0.0209311,0.000829735,0.00107769,-0.00829224
14,4,0,0,0,0,0,0,231.8,254,0,0,0,0,0,0,0,231.8,766,0,-0.00022274,-0.000499115,-1.78147e-05,0.0155944,0.000262108,-0.000276413,0.000720901,0.000570335,0.044123,0.00071701,-0.0002948,0.0143664,-0.0214651,0.000639,0.00130657,-0.00833038
14,5,0,0,0,0,0,0,231.8,254,0,0,0,0,0,0,0,231.8,766,0,0.00103611,0.0011412,0.000211067,0.0158996,0.00354275,0.000982437,-0.000156479,0.000455895,-0.0608575,0.000564422,0.00058258,0.0158923,-0.0213126,0.000600853,0.00138287,-0.00855927
14,6,0,0,0,0,0,0,231.8,254,0,0,0,0,0,0,0,231.8,766,0,0.000769082,-0.000117646,-0.000170403,0.0158233,0.00152096,-0.000123825,0.000835342,0.000532188,0.029322,0.000297394,-0.000218506,0.0143283,-0.0207022,0.00155453,0.00184063,-0.00916962
14,7,0,0,0,0,0,0,231.8,254,0,0,0,0,0,0,0,231.8,766,0,0.000311318,0.000759735,0.000516243,0.0170059,0.00133022,0.000219498,0.000720901,0.000913658,0.0684608,0.00170883,0.00119293,0.0152438,-0.0202826,0.00132565,-0.000143013,-0.00875
14,8,0,0,0,0,0,0,231.8,254,0,0,0,0,0,0,0,231.8,766,0,0.000921669,0.000301971,-0.000132256,0.0155182,0.00144466,0.000486526,0.00060646,0.000379601,-0.0565087,0.00113663,-0.000905151,0.0151294,-0.0209692,0.000295677,0.000848808,-0.007453
14,9,0,0,0,0,0,0,231.8,254,0,0,0,0,0,0,0,231.8,766,0,0.0011124,0.000492706,0.000859566,0.0161285,0.00216946,0.000410232,0.000339432,0.000608482,0.0338615,0.000106659,-0.000218506,0.0133364,-0.020397,0.000486412,0.00069622,-0.00886444
15,0,0,0,0,0,0,0,231.8,254,0,0,0,0,0,0,0,231.8,766,0,-7.01519e-05,0.000378265,-0.000437431,0.0155563,0.00449642,0.000143204,-0.00107201,-0.000268898,0.0802482,0.000182953,-0.000409241,0.0127261,-0.0214651,-0.000123939,-0.00056263,-0.00916962
15,1,0,0,0,0,0,0,231.8,254,0,0,0,0,0,0,0,231.8,766,0,0.000273171,7.30893e-05,0.000745125,0.0159759,0.00422939,0.000257645,-4.2038e-05,0.00118069,-0.0618493,0.000449982,0.000162964,0.0120013,-0.0215414,-4.76455e-05,0.00115398,-0.00760559
15,2,0,0,0,0,0,0,231.8,254,0,0,0,0,0,0,0,231.8,766,0,0.000387612,-3.20468e-06,0.000592537,0.0173874,0.00201687,0.00136391,0.000797195,0.000150719,-0.0277459,0.000755157,-0.000485535,0.0129931,-0.02116,0.0012875,0.00119213,-0.00756744
15,3,0,0,0,0,0,0,231.8,254,0,0,0,0,0,0,0,231.8,766,0,0.000196877,0.000149383,2.03323e-05,0.0156326,0.000567284,2.87627e-05,0.00098793,0.000989952,-0.00493401,0.000869598,0.00046814,0.0139849,-0.0218085,0.00144009,0.00199322,-0.00894073
15,4,0,0,0,0,0,0,231.8,254,0,0,0,0,0,0,0,231.8,766,0,0.000997963,0.000378265,0.000325508,0.01651,-0.000996742,0.00109688,7.24029e-05,0.000989952,0.0670875,0.000411835,-0.0002948,0.0143283,-0.0206259,0.000448265,0.000886955,-0.00916962
15,5,0,0,0,0,0,0,231.8,254,0,0,0,0,0,0,0,231.8,766,0,6.14207e-06,0.00110306,0.00158436,0.017044,-0.00107304,0.000753555,0.000339432,0.00106625,-0.000127487,0.000869598,0.000658874,0.0165789,-0.0196722,0.00189785,0.000963249,-0.00794891
15,6,0,0,0,0,0,0,231.8,254,0,0,0,0,0,0,0,231.8,766,0,0.000349465,0.000683441,0.000249214,0.0167389,-0.00126377,0.000867996,0.000224991,0.000417748,-0.0300729,0.000373688,0.00046814,0.0167697,-0.0202063,0.00117306,0.00142101,-0.00901703
15,7,0,0,0,0,0,0,231.8,254,0,0,0,0,0,0,0,231.8,766,0,0.000959816,0.000492706,-0.00032299,0.0155563,-0.00145451,0.000257645,0.000644607,0.000608482,0.0770438,3.03648e-05,0.000201111,0.0160449,-0.0213507,0.000524559,0.000467339,-0.00943665
15,8,0,0,0,0,0,0,231.8,254,0,0,0,0,0,0,0,231.8,766,0,0.000578347,0.000836029,0.000974007,0.0166244,0.00354275,0.00136391,0.000453873,0.000989952,0.000177689,0.00201401,0.000544433,0.015816,-0.0193289,0.000829735,0.00142101,-0.00783447
15,9,0,0,0,0,0,0,231.8,254,0,0,0,0,0,0,0,231.8,766,0,0.000959816,0.000797882,-0.00020855,0.0165481,0.00621304,0.00056282,-0.000118332,0.000608482,-0.02725,-4.59291e-05,0.000201111,0.012955,-0.0209692,0.000906029,0.000619926,-0.00737671
16,0,0,0,0,0,0,0,231.8,254,0,0,0,0,0,0,0,231.8,766,0,-0.00071865,0.000988617,-0.000246697,0.0154419,0.00781521,0.000524673,0.00156013,-0.000688515,0.0914252,0.00109848,0.000925903,0.016846,-0.022457,0.000677147,0.000925102,-0.00798706
16,1,0,0,0,0,0,0,231.8,254,0,0,0,0,0,0,0,231.8,766,0,0.000845375,0.000378265,0.000516243,0.0150222,0.00522121,0.000410232,-0.00065239,0.000608482,0.00509865,-0.000732575,-0.000752564,0.0166171,-0.0211981,-0.000505409,0.000162163,-0.00875
16,2,0,0,0,0,0,0,231.8,254,0,0,0,0,0,0,0,231.8,766,0,0.000235024,0.000645294,9.66262e-05,0.0153274,0.00400051,0.000906143,0.0013694,0.0010281,-0.030111,0.0014418,0.00046814,0.0190585,-0.0191382,0.00132565,-0.000257454,-0.00848297
16,3,0,0,0,0,0,0,231.8,254,0,0,0,0,0,0,0,231.8,766,0,-0.000184593,0.00133194,0.000897713,0.0173111,0.00606045,0.00166908,0.00129311,0.00125698,0.0945152,0.00205215,0.000544433,0.0200885,-0.0209692,0.00124935,0.000619926,-0.00875
16,4,0,0,0,0,0,0,231.8,254,0,0,0,0,0,0,0,231.8,766,0,0.000196877,0.000530853,-0.000590019,0.0155944,0.00758633,0.000219498,-0.000232773,-4.00161e-05,0.00971443,-0.000732575,0.000124817,0.0190203,-0.0213507,0.000295677,-0.00056263,-0.00894073
16,5,0,0,0,0,0,0,231.8,254,0,0,0,0,0,0,0,231.8,766,0,8.2436e-05,0.000416412,0.00055439,0.0152893,0.00670895,0.000906143,0.000797195,0.000379601,-0.0598275,0.000793304,-0.00101959,0.0184481,-0.0202444,0.0012875,0.000314751,-0.00859741
16,6,0,0,0,0,0,0,231.8,254,0,0,0,0,0,0,0,231.8,766,0,-0.000184593,0.000759735,0.00017292,0.0165481,0.00800594,0.000715408,0.00110237,0.00121883,-0.00821465,0.000984039,-0.000828858,0.0187152,-0.0204733,0.00136379,0.000848808,-0.0075293
16,7,0,0,0,0,0,0,231.8,254,0,0,0,0,0,0,0,231.8,766,0,0.00107426,0.000797882,0.000211067,0.0168151,0.00785336,0.00056282,0.000568314,-0.000383339,0.0245536,0.00125107,0.000773315,0.018143,-0.0212744,0.000600853,0.00111584,-0.00829224
16,8,0,0,0,0,0,0,231.8,254,0,0,0,0,0,0,0,231.8,766,0,0.0011887,0.00133194,0.00143177,0.0164337,0.00487789,0.000372085,0.000415726,0.000951805,0.0645698,0.000869598,4.85228e-05,0.0188678,-0.0205878,-0.000390968,-0.000295601,-0.00737671
16,9,0,0,0,0,0,0,231.8,254,0,0,0,0,0,0,0,231.8,766,0,-0.000146446,3.49423e-05,5.84793e-05,0.0161285,0.00361904,0.000333939,0.00098793,-0.000307045,-0.0525796,6.85118e-05,0.000658874,0.0158541,-0.02116,0.000677147,0.000925102,-0.010047
17,0,0,0,0,0,0,0,231.8,254,0,0,0,0,0,0,0,231.8,766,0,0.000578347,0.000263824,0.000859566,0.0168533,0.00628933,0.000715408,0.000911636,0.000799217,0.0301612,0.000411835,0.000162964,0.0134127,-0.0204733,0.000562706,0.00115398,-0.00829224
17,1,0,0,0,0,0,0,231.8,254,0,0,0,0,0,0,0,231.8,766,0,0.00107426,0.00194229,0.000859566,0.0169677,0.00632748,0.00185982,0.000644607,0.00114254,0.0596488,0.000182953,0.00119293,0.0140231,-0.0207785,0.00159267,0.00130657,-0.00829224
17,2,0,0,0,0,0,0,231.8,254,0,0,0,0,0,0,0,231.8,766,0,0.000959816,0.000988617,0.000287361,0.0167007,0.00693783,0.000295792,-0.000118332,0.00140957,-0.0489175,0.000869598,0.00130737,0.0110095,-0.0211218,0.00117306,0.000619926,-0.00852112
17,3,0,0,0,0,0,0,231.8,254,0,0,0,0,0,0,0,231.8,766,0,0.000387612,-0.00030838,0.000859566,0.0168914,0.00709042,0.00102058,0.000301285,-0.000383339,0.0353111,0.000678863,-0.000599976,0.00727108,-0.02116,0.000143089,0.00020031,-0.00806335
17,4,0,0,0,0,0,0,231.8,254,0,0,0,0,0,0,0,231.8,766,0,-0.00022274,0.000378265,0.000325508,0.0163192,0.00800594,0.000181351,-0.000309067,0.000722923,0.0739539,0.00147995,0.00115479,0.00940731,-0.0215796,0.000562706,0.000619926,-0.0099707
17,5,0,0,0,0,0,0,231.8,254,0,0,0,0,0,0,0,231.8,766,0,0.000769082,0.00095047,0.000668831,0.0166626,0.0047253,0.00128761,0.000835342,0.0010281,-0.0539147,0.00140366,0.000620727,0.00776699,-0.0202444,0.00113491,0.00130657,-0.00920776
17,6,0,0,0,0,0,0,231.8,254,0,0,0,0,0,0,0,231.8,766,0,0.000425759,0.000836029,0.000859566,0.0155563,0.00426754,0.00182167,0.000377579,0.00076107,0.0353492,0.000106659,0.000277405,0.00994137,-0.0202826,0.00109676,0.00191692,-0.00920776
17,7,0,0,0,0,0,0,231.8,254,0,0,0,0,0,0,0,231.8,766,0,0.00145573,0.00133194,0.000974007,0.0170822,0.00453457,0.00121132,0.000530167,0.00110439,0.0815452,0.0014418,0.00142181,0.0125735,-0.02116,0.00136379,0.000886955,-0.00875
17,8,0,0,0,0,0,0,231.8,254,0,0,0,0,0,0,0,231.8,766,0,0.000845375,-3.20468e-06,2.03323e-05,0.0165481,0.00552639,-0.000467148,0.000949783,0.000455895,-0.0608956,0.000907745,0.000773315,0.0137942,-0.0218085,0.000486412,4.77219e-05,-0.00733856
17,9,0,0,0,0,0,0,231.8,254,0,0,0,0,0,0,0,231.8,766,0,0.000807228,0.00129379,0.000249214,0.0165863,0.00586971,0.000524673,0.000453873,0.000455895,-0.0297677,0.000335541,0.000773315,0.0141375,-0.0212744,0.0012875,0.000772514,-0.00783447
18,0,0,0,0,0,0,0,231.8,254,0,0,0,0,0,0,0,231.8,766,0,0.000730935,0.00018753,0.0010503,0.0162429,0.00384792,0.000677261,0.000873489,-0.000307045,-0.00756615,-0.00016037,0.000239258,0.010628,-0.0204352,0.000295677,0.000391045,-0.00852112
18,1,0,0,0,0,0,0,231.8,254,0,0,0,0,0,0,0,231.8,766,0,-0.000375328,0.000492706,0.00055439,0.0157089,0.00598415,0.000753555,0.00049202,-0.000345192,0.065409,0.00224289,0.000124817,0.0103228,-0.0193289,0.000639,-0.000295601,-0.00714783
18,2,0,0,0,0,0,0,231.8,254,0,0,0,0,0,0,0,231.8,766,0,0.000959816,-0.000346527,0.000439949,0.0166244,0.00495419,-0.000352707,0.00114052,-1.86916e-06,-0.00333183,0.00109848,0.000201111,0.013489,-0.0210455,0.000715294,0.000886955,-0.0093985
18,3,0,0,0,0,0,0,231.8,254,0,0,0,0,0,0,0,231.8,766,0,0.000845375,0.00117935,0.00146992,0.0163955,0.00522121,0.000677261,0.00117867,-0.000307045,-0.0360238,0.00155624,0.000925903,0.0164264,-0.0205878,0.00105862,0.00111584,-0.00741486
18,4,0,0,0,0,0,0,231.8,254,0,0,0,0,0,0,0,231.8,766,0,0.00157017,0.000492706,0.00162251,0.017044,0.00823482,0.000677261,0.00060646,0.00106625,0.0727332,0.00071701,0.00203217,0.0195926,-0.0199774,0.00124935,0.00164989,-0.00924591
18,5,0,0,0,0,0,0,231.8,254,0,0,0,0,0,0,0,231.8,766,0,-0.000184593,0.000797882,0.000859566,0.0158233,0.00644192,0.00094429,0.0013694,7.44248e-05,-0.00611656,0.00193771,0.000735168,0.014252,-0.0201682,0.000829735,8.58689e-05,-0.00913147
18,6,0,0,0,0,0,0,231.8,254,0,0,0,0,0,0,0,231.8,766,0,-0.000413475,0.000111236,0.000249214,0.0153656,0.00525936,-0.000390854,-0.000423508,-0.000802956,-0.0327813,0.000526275,0.000391846,0.0147097,-0.0217703,0.000600853,9.57493e-06,-0.0081015
18,7,0,0,0,0,0,0,231.8,254,0,0,0,0,0,0,0,231.8,766,0,0.00122685,0.000797882,0.000516243,0.0162048,0.00426754,0.000410232,7.24029e-05,0.000684776,0.0865043,-8.40761e-05,0.000735168,0.0152438,-0.0218466,0.000104942,9.57493e-06,-0.00894073
18,8,0,0,0,0,0,0,231.8,254,0,0,0,0,0,0,0,231.8,766,0,0.000120583,0.0011412,0.00139362,0.0162429,0.00659451,0.000295792,0.000224991,0.00026516,-5.11929e-05,0.000793304,0.000506287,0.0162356,-0.0212363,0.00136379,-0.000486336,-0.00859741
18,9,0,0,0,0,0,0,231.8,254,0,0,0,0,0,0,0,231.8,766,0,-0.000375328,0.000454559,0.000630684,0.0158233,0.00483974,0.00056282,0.000720901,0.0010281,-0.0374734,0.0021666,0.000735168,0.0155108,-0.0213507,0.00105862,0.000467339,-0.0102759
19,0,0,0,0,0,0,0,231.8,254,0,0,0,0,0,0,0,231.8,766,0,8.2436e-05,0.00018753,0.000249214,0.0166244,0.00308498,0.000333939,0.00117867,-0.000459633,0.0899375,0.00117477,-0.000523682,0.0126117,-0.0209311,0.000562706,0.000772514,-0.00825409
19,1,0,0,0,0,0,0,231.8,254,0,0,0,0,0,0,0,231.8,766,0,0.00145573,0.000416412,0.00173695,0.01651,0.00438198,0.00128761,0.000759048,0.00125698,0.0038398,0.00113663,0.000697021,0.0162738,-0.0202444,0.000906029,0.00180248,-0.00852112
19,2,0,0,0,0,0,0,231.8,254,0,0,0,0,0,0,0,231.8,766,0,0.00164646,0.000454559,0.000439949,0.0166626,0.0041531,0.000715408,0.00148384,0.000303307,-0.0657403,0.00071701,0.00104034,0.0123828,-0.0207404,0.0012112,0.00111584,-0.00848297
19,3,0,0,0,0,0,0,231.8,254,0,0,0,0,0,0,0,231.8,766,0,4.4289e-05,0.000263824,0.00108845,0.0152511,-0.00027195,0.000600967,0.000911636,-4.00161e-05,-0.0140893,0.000793304,0.00130737,0.0107806,-0.0213126,0.000486412,0.000619926,-0.00875
19,4,0,0,0,0,0,0,231.8,254,0,0,0,0,0,0,0,231.8,766,0,0.000845375,0.00117935,0.000439949,0.01651,-0.00229374,0.000333939,0.00182716,0.000684776,0.02154,0.000335541,0.000735168,0.0143664,-0.0213889,-0.000467262,0.0010014,-0.00855927
19,5,0,0,0,0,0,0,231.8,254,0,0,0,0,0,0,0,231.8,766,0,0.00137943,0.00110306,0.00108845,0.0170822,-0.00172153,0.00056282,0.00156013,-1.86916e-06,0.0654472,0.00205215,0.0010022,0.0135272,-0.019863,0.0018597,0.0010014,-0.00829224
19,6,0,0,0,0,0,0,231.8,254,0,0,0,0,0,0,0,231.8,766,0,-7.01519e-05,0.000607147,0.000706978,0.0171966,-4.92088e-06,0.00170723,0.00098793,3.62778e-05,-0.0574624,0.00182327,0.000124817,0.016083,-0.018833,0.00170712,0.00115398,-0.00863556
19,7,0,0,0,0,0,0,231.8,254,0,0,0,0,0,0,0,231.8,766,0,0.000235024,0.00018753,0.000783272,0.0162429,-0.000233803,0.000257645,0.00106422,0.000341454,0.0276817,0.00109848,0.000544433,0.0153582,-0.0224188,0.000829735,0.00115398,-0.00829224
19,8,0,0,0,0,0,0,231.8,254,0,0,0,0,0,0,0,231.8,766,0,0.000311318,0.000340118,0.000478096,0.0152893,0.00144466,2.87627e-05,-0.000499802,3.62778e-05,0.0577415,0.000526275,0.000658874,0.0149768,-0.0196722,0.000677147,-0.000982246,-0.00791077
19,9,0,0,0,0,0,0,231.8,254,0,0,0,0,0,0,0,231.8,766,0,8.2436e-05,0.000378265,0.00055439,0.0150604,0.00251278,0.000524673,0.00060646,0.000417748,-0.054754,0.00113663,0.000315552,0.0140231,-0.0222662,0.000181236,0.000963249,-0.0103522
20,0,0,0,0,0,0,0,231.8,254,0,0,0,0,0,0,0,231.8,766,0,0.000387612,0.00018753,0.0010503,0.0155563,0.00564083,-0.000238266,0.000759048,0.000646629,0.0326026,0.000869598,0.00153625,0.0121539,-0.0215033,0.000791588,0.000848808,-0.00867371
20,1,0,0,0,0,0,0,231.8,254,0,0,0,0,0,0,0,231.8,766,0,0.000654641,0.0017897,0.000668831,0.0161285,0.00575527,0.00121132,0.000873489,0.000227013,0.0731147,0.000793304,0.000697021,0.0144809,-0.0210074,0.00140194,0.0010014,-0.00882629
20,2,0,0,0,0,0,0,231.8,254,0,0,0,0,0,0,0,231.8,766,0,-7.01519e-05,0.000797882,0.000974007,0.0164718,0.00342831,0.000219498,0.00121681,-0.000192604,-0.057615,0.000869598,0.0010022,0.0149005,-0.0216559,0.000715294,0.00058178,-0.00928406
20,3,0,0,0,0,0,0,231.8,254,0,0,0,0,0,0,0,231.8,766,0,0.0011124,0.000530853,0.000897713,0.0178833,0.00693783,0.000600967,0.000644607,0.000532188,0.0328696,0.00155624,0.000735168,0.0124209,-0.0210074,0.00117306,0.000162163,-0.0093222
20,4,0,0,0,0,0,0,231.8,254,0,0,0,0,0,0,0,231.8,766,0,0.000349465,0.000912323,0.000592537,0.0157852,0.00766262,0.000372085,0.000186844,3.62778e-05,0.0795997,0.000831451,0.000658874,0.0107806,-0.0220374,0.000143089,0.000772514,-0.00875
20,5,0,0,0,0,0,0,231.8,254,0,0,0,0,0,0,0,231.8,766,0,0.000845375,-0.000117646,0.000630684,0.0159378,0.00571712,0.00056282,0.00121681,0.00106625,-0.0645959,0.00140366,-0.000485535,0.0124972,-0.0208167,0.000982323,0.000619926,-0.00882629
20,6,0,0,0,0,0,0,231.8,254,0,0,0,0,0,0,0,231.8,766,0,0.000692788,0.000111236,0.00204212,0.0164337,0.00392422,0.00109688,0.0013694,0.000913658,-0.0314462,6.85118e-05,0.000315552,0.0157016,-0.0203207,0.000371971,0.000238457,-0.00798706
20,7,0,0,0,0,0,0,231.8,254,0,0,0,0,0,0,0,231.8,766,0,0.0011124,-0.00019394,0.000630684,0.0166626,0.00319942,-0.000123825,0.000682754,0.000532188,-0.0120293,0.000526275,0.000887756,0.0155108,-0.0217322,0.00132565,0.00187878,-0.00783447
20,8,0,0,0,0,0,0,231.8,254,0,0,0,0,0,0,0,231.8,766,0,0.00103611,0.000530853,0.000783272,0.0157852,0.00686153,0.000639114,7.24029e-05,0.000455895,0.0614799,0.000678863,1.03759e-05,0.0153582,-0.0207404,-0.000696144,-0.000753365,-0.007453
20,9,0,0,0,0,0,0,231.8,254,0,0,0,0,0,0,0,231.8,766,0,0.000387612,0.000721588,0.000706978,0.01651,0.00369534,0.000410232,0.00133125,0.000532188,0.00361092,0.00128921,0.000811462,0.0212329,-0.0206259,0.00102047,0.000925102,-0.00886444
21,0,0,0,0,0,0,0,231.8,254,0,0,0,0,0,0,0,231.8,766,0,0.00164646,0.00125565,0.000974007,0.0168914,0.00453457,0.00117317,0.00121681,0.00118069,-0.0416695,0.00117477,0.000506287,0.0186389,-0.0197104,0.00189785,0.000925102,-0.00962738
21,1,0,0,0,0,0,0,231.8,254,0,0,0,0,0,0,0,231.8,766,0,4.4289e-05,7.30893e-05,0.00124104,0.0165481,0.00648006,0.00109688,0.000873489,-0.000535927,0.0754798,-0.000312958,1.03759e-05,0.0107043,-0.0207785,0.000448265,0.00103954,-0.00768188
21,2,0,0,0,0,0,0,231.8,254,0,0,0,0,0,0,0,231.8,766,0,8.2436e-05,-0.000727997,-5.59617e-05,0.0149078,0.00903591,0.000105057,-0.000232773,-4.00161e-05,-0.00840538,0.00128921,8.66698e-05,0.00933102,-0.0210837,2.86484e-05,0.000467339,-0.00791077
21,3,0,0,0,0,0,0,231.8,254,0,0,0,0,0,0,0,231.8,766,0,0.00126499,0.00125565,0.000668831,0.0165863,0.00762447,0.00113502,0.000224991,0.00137142,-0.0347268,-0.000122223,0.00187958,0.0139849,-0.0216559,0.000867882,0.000467339,-0.00966553
21,4,0,0,0,0,0,0,231.8,254,0,0,0,0,0,0,0,231.8,766,0,0.000387612,0.000836029,0.000668831,0.01651,0.00827297,0.000105057,0.00117867,0.00144772,0.0880683,0.00155624,0.00245178,0.0214236,-0.0205878,0.00159267,0.00226025,-0.00848297
21,5,0,0,0,0,0,0,231.8,254,0,0,0,0,0,0,0,231.8,766,0,0.0005402,0.00018753,0.00112659,0.0168533,0.00869259,0.00109688,0.000377579,0.000570335,-0.00134819,0.000984039,0.00195587,0.0203936,-0.0211218,0.000791588,0.00142101,-0.00844482
21,6,0,0,0,0,0,0,231.8,254,0,0,0,0,0,0,0,231.8,766,0,0.000883522,0.000912323,0.00150806,0.0162048,0.00720486,0.00140205,0.00121681,-0.000230751,-0.0383508,-4.59291e-05,0.000849609,0.0182956,-0.0204352,0.00136379,-0.000410042,-0.00875
21,7,0,0,0,0,0,0,231.8,254,0,0,0,0,0,0,0,231.8,766,0,0.000921669,0.000492706,0.00120289,0.0167389,0.00377163,0.000639114,3.42559e-05,0.000379601,0.0903953,0.00102219,8.66698e-05,0.0181811,-0.0208548,0.00151638,0.000505486,-0.00859741
21,8,0,0,0,0,0,0,231.8,254,0,0,0,0,0,0,0,231.8,766,0,8.2436e-05,0.00152267,0.00135548,0.0173874,0.00701412,0.00094429,0.00106422,0.00076107,0.00410683,0.0014418,0.00153625,0.0189059,-0.0198248,0.000677147,9.57493e-06,-0.00806335
21,9,0,0,0,0,0,0,231.8,254,0,0,0,0,0,0,0,231.8,766,0,8.2436e-05,0.000492706,0.00146992,0.0159378,0.00560268,0.000410232,0.00114052,-7.81631e-05,-0.0677621,0.000488129,0.000277405,0.0146716,-0.0215796,0.000639,0.00058178,-0.00875
22,0,0,0,0,0,0,0,231.8,254,0,0,0,0,0,0,0,231.8,766,0,0.00153202,0.000645294,0.000745125,0.0160904,0.0035046,0.000639114,0.000530167,7.44248e-05,-0.0139367,0.000259247,0.00123108,0.0141757,-0.0208167,0.00109676,-0.000448189,-0.00829224
22,1,0,0,0,0,0,0,231.8,254,0,0,0,0,0,0,0,231.8,766,0,-0.000299034,0.00106491,0.000897713,0.0156707,0.00232204,6.69097e-05,-0.000118332,0.000417748,0.0362266,0.000526275,0.000887756,0.0163119,-0.0223044,0.000104942,0.00138287,-0.00798706
22,2,0,0,0,0,0,0,231.8,254,0,0,0,0,0,0,0,231.8,766,0,0.00107426,0.00106491,0.00116474,0.0166244,0.00323757,0.00178352,0.000759048,0.000837364,0.184771,0.00109848,0.0010022,0.0141757,-0.02013,0.000677147,0.000886955,-0.00951294
22,3,0,0,0,0,0,0,231.8,254,0,0,0,0,0,0,0,231.8,766,0,0.000807228,0.000874176,0.000859566,0.0170059,0.00331387,0.000257645,0.000682754,0.000303307,0.173556,0.00128921,0.00161255,0.0131076,-0.0200919,0.000867882,9.57493e-06,-0.00791077
22,4,0,0,0,0,0,0,231.8,254,0,0,0,0,0,0,0,231.8,766,0,0.00107426,0.000530853,0.000630684,0.0167007,0.00388607,0.000715408,0.000301285,0.000684776,0.139796,0.000945892,0.000353699,0.0101702,-0.0210837,0.00025753,8.58689e-05,-0.00985626
22,5,0,0,0,0,0,0,231.8,254,0,0,0,0,0,0,0,231.8,766,0,0.000654641,0.000988617,5.84793e-05,0.0165481,0.00400051,0.000600967,0.00125496,0.00110439,0.012194,-0.000427399,4.85228e-05,0.00906399,-0.0209692,0.000867882,0.00107769,-0.00852112
22,6,0,0,0,0,0,0,231.8,254,0,0,0,0,0,0,0,231.8,766,0,0.0005402,0.000225677,-0.000246697,0.0156707,0.00236019,0.000257645,-3.89107e-06,0.000227013,-0.13162,0.000678863,-0.000752564,0.0124591,-0.0215414,0.00109676,0.000772514,-0.00844482
22,7,0,0,0,0,0,0,231.8,254,0,0,0,0,0,0,0,231.8,766,0,0.0011124,0.00110306,0.000287361,0.0152511,0.00575527,0.000257645,-8.0185e-05,0.000532188,-0.0130593,0.000182953,0.000277405,0.00852993,-0.0217703,-9.49856e-06,9.57493e-06,-0.00955109
22,8,0,0,0,0,0,0,231.8,254,0,0,0,0,0,0,0,231.8,766,0,0.000692788,0.000225677,0.00101215,0.0171203,0.00792965,0.000372085,-0.000309067,0.00114254,0.0264991,0.00113663,0.000925903,0.0110858,-0.0209692,0.00136379,-0.000448189,-0.00772003
22,9,0,0,0,0,0,0,231.8,254,0,0,0,0,0,0,0,231.8,766,0,6.14207e-06,-0.000232087,-1.78147e-05,0.0160141,0.00400051,0.000448379,-3.89107e-06,0.000112572,-0.108808,0.000411835,0.000658874,0.011391,-0.0207785,0.000486412,0.00203136,-0.00813965
23,0,0,0,0,0,0,0,231.8,254,0,0,0,0,0,0,0,231.8,766,0,0.000769082,0.000759735,0.000630684,0.0175018,0.00308498,0.00136391,0.00144569,7.44248e-05,-0.00680321,0.00178513,0.00119293,0.0110476,-0.0195578,0.00117306,0.000276604,-0.00924591
23,1,0,0,0,0,0,0,231.8,254,0,0,0,0,0,0,0,231.8,766,0,0.00103611,-0.00030838,0.00101215,0.0174636,-0.000500832,0.000639114,0.00114052,0.000112572,0.0446189,0.000602569,0.000391846,0.00753811,-0.0201682,0.00166897,-0.000371895,-0.00936035
23,2,0,0,0,0,0,0,231.8,254,0,0,0,0,0,0,0,231.8,766,0,0.000463906,0.000492706,0.000211067,0.0168151,-0.000310097,0.000524673,0.000186844,0.000608482,-0.0997674,-0.000236664,0.000315552,0.00742367,-0.0215414,0.000906029,0.000429192,-0.00791077
23,3,0,0,0,0,0,0,231.8,254,0,0,0,0,0,0,0,231.8,766,0,0.000654641,0.00159897,0.000859566,0.0171966,0.000796166,0.00105873,0.000186844,0.00129513,-0.0605141,0.00132736,0.000811462,0.0120013,-0.0207404,0.000143089,0.000429192,-0.00905518
23,4,0,0,0,0,0,0,231.8,254,0,0,0,0,0,0,0,231.8,766,0,0.000235024,0.000874176,0.000783272,0.0161666,0.000185814,0.00121132,0.000873489,-0.000345192,-0.0347649,0.00071701,0.000239258,0.0163501,-0.0202444,0.000600853,0.00103954,-0.00829224
23,5,0,0,0,0,0,0,231.8,254,0,0,0,0,0,0,0,231.8,766,0,0.000654641,0.000301971,-0.00020855,0.0163192,-0.00301853,0.000333939,0.000453873,0.000150719,0.0431312,0.000869598,0.000429993,0.0192492,-0.0210837,0.00163082,0.00103954,-0.00848297
23,6,0,0,0,0,0,0,231.8,254,0,0,0,0,0,0,0,231.8,766,0,0.000120583,0.000721588,0.00093586,0.0165863,-0.00542179,0.000600967,-0.000309067,0.000379601,-0.0241982,0.00170883,0.000429993,0.0205081,-0.0208929,-0.000200233,-0.000295601,-0.00848297
23,7,0,0,0,0,0,0,231.8,254,0,0,0,0,0,0,0,231.8,766,0,0.000921669,0.000263824,0.000821419,0.0173111,-0.00362888,0.000906143,-0.000156479,0.000570335,-0.0504433,0.000945892,0.00104034,0.0224536,-0.0199011,0.000982323,0.000276604,-0.00760559
23,8,0,0,0,0,0,0,231.8,254,0,0,0,0,0,0,0,231.8,766,0,0.000349465,0.00110306,0.00093586,0.0169296,-0.00523106,0.00117317,0.00125496,0.000913658,0.0600684,0.00235733,0.000277405,0.0233691,-0.0199011,0.00124935,0.00149731,-0.00768188
23,9,0,0,0,0,0,0,231.8,254,0,0,0,0,0,0,0,231.8,766,0,0.000730935,0.000874176,0.00143177,0.0158996,-0.00427738,0.000829849,0.000911636,0.000684776,-0.0138604,0.000106659,0.000353699,0.0236743,-0.0204352,0.000639,0.0010014,-0.00875
24,0,0,0,0,0,0,0,231.8,254,0,0,0,0,0,0,0,231.8,766,0,0.000349465,-3.20468e-06,2.03323e-05,0.0161666,0.00201687,-0.00031456,-0.000690537,0.000989952,-0.0414025,-4.59291e-05,0.000162964,0.0174182,-0.0210074,2.86484e-05,-6.6719e-05,-0.00943665
24,1,0,0,0,0,0,0,231.8,254,0,0,0,0,0,0,0,231.8,766,0,0.00141758,0.000378265,-0.000284843,0.0162048,0.00117764,0.000829849,0.00125496,-0.000535927,0.082537,0.000259247,-0.00105774,0.0115054,-0.0210074,-0.000123939,0.00020031,-0.00802521
24,2,0,0,0,0,0,0,231.8,254,0,0,0,0,0,0,0,231.8,766,0,0.00130314,0.00095047,0.00108845,0.015213,0.00281796,0.000982437,-0.000194626,0.0010281,-0.0037133,0.000678863,0.000735168,0.0137942,-0.0201682,0.000944176,0.00069622,-0.00760559
24,3,0,0,0,0,0,0,231.8,254,0,0,0,0,0,0,0,231.8,766,0,0.000921669,0.000301971,0.000821419,0.0162429,0.00434383,0.000753555,0.000301285,0.00076107,-0.0374734,0.000106659,-0.000447388,0.0151675,-0.0210074,0.000410118,0.000467339,-0.00829224
24,4,0,0,0,0,0,0,231.8,254,0,0,0,0,0,0,0,231.8,766,0,0.000463906,0.000569,0.00108845,0.0164337,0.00365719,0.000219498,-0.000118332,0.00026516,0.091883,0.000678863,-0.000752564,0.018143,-0.0204733,0.000371971,0.00069622,-0.0075293
24,5,0,0,0,0,0,0,231.8,254,0,0,0,0,0,0,0,231.8,766,0,0.000845375,0.000301971,-0.000399284,0.0153274,0.00701412,0.000524673,3.42559e-05,0.000799217,0.00490791,0.0002211,-0.000905151,0.0168078,-0.0207404,0.00136379,0.00168804,-0.00920776
24,6,0,0,0,0,0,0,231.8,254,0,0,0,0,0,0,0,231.8,766,0,-0.000527916,-3.20468e-06,0.000783272,0.0162429,0.00625118,0.00128761,0.000835342,0.000722923,-0.0621163,0.000831451,0.000201111,0.0105899,-0.0202063,6.67954e-05,0.000925102,-0.00871185
24,7,0,0,0,0,0,0,231.8,254,0,0,0,0,0,0,0,231.8,766,0,0.000463906,-0.000766144,0.00127918,0.0160522,0.00705227,0.000639114,0.00011055,0.000837364,-0.00974052,0.000182953,0.000315552,0.010094,-0.0200919,0.00132565,0.00153545,-0.00936035
24,8,0,0,0,0,0,0,231.8,254,0,0,0,0,0,0,0,231.8,766,0,-0.000260887,0.000912323,-1.78147e-05,0.015747,0.0105236,0.00113502,0.000568314,0.000837364,0.0236381,0.00071701,0.00115479,0.0130694,-0.0205115,0.000524559,8.58689e-05,-0.00924591
24,9,0,0,0,0,0,0,231.8,254,0,0,0,0,0,0,0,231.8,766,0,0.000235024,3.49423e-05,0.000287361,0.0166626,0.0107907,-0.000123825,0.00049202,0.000570335,0.0655235,0.000907745,0.000697021,0.0146716,-0.0210074,-0.000963173,0.000925102,-0.00661377
25,0,0,0,0,0,0,0,231.8,254,0,0,0,0,0,0,0,231.8,766,0,0.000463906,0.0012175,0.000859566,0.0171966,0.00869259,0.00182167,0.00060646,0.00114254,-0.0505196,0.00132736,0.000925903,0.012955,-0.0197485,0.000867882,0.00119213,-0.00798706
25,1,0,0,0,0,0,0,231.8,254,0,0,0,0,0,0,0,231.8,766,0,0.000730935,0.0011412,0.00101215,0.016777,0.0097607,0.00121132,0.00125496,0.000379601,0.0344718,0.00159439,0.000162964,0.015549,-0.02013,0.00109676,0.000772514,-0.00764374
25,2,0,0,0,0,0,0,231.8,254,0,0,0,0,0,0,0,231.8,766,0,0.000616494,0.000416412,0.000745125,0.0164337,0.0110577,0.000448379,0.000682754,0.00118069,0.0625861,0.00071701,0.000315552,0.0209277,-0.0202063,0.000486412,0.00115398,-0.00840668
25,3,0,0,0,0,0,0,231.8,254,0,0,0,0,0,0,0,231.8,766,0,0.000769082,0.0011412,0.000859566,0.0163955,0.00751003,0.00132576,0.00144569,0.000608482,-0.0459801,0.00071701,0.000925903,0.0190203,-0.0213507,0.00124935,0.00161175,-0.0101233
25,4,0,0,0,0,0,0,231.8,254,0,0,0,0,0,0,0,231.8,766,0,0.000769082,0.00106491,0.00101215,0.0168151,0.00552639,0.00113502,0.000530167,0.00076107,0.0393546,0.00102219,1.03759e-05,0.0202029,-0.0191382,0.0012875,0.00115398,-0.00894073
25,5,0,0,0,0,0,0,231.8,254,0,0,0,0,0,0,0,231.8,766,0,0.000616494,0.000988617,0.00112659,0.0168914,0.00564083,0.00132576,0.00110237,0.000188866,0.0784171,0.000297394,0.00111664,0.0180285,-0.0199393,0.000867882,0.00107769,-0.00783447
25,6,0,0,0,0,0,0,231.8,254,0,0,0,0,0,0,0,231.8,766,0,0.0011124,-0.000117646,0.00124104,0.0161666,0.00609859,0.00124947,0.000377579,0.000303307,-0.0497186,0.00109848,0.000735168,0.014519,-0.0207785,0.000867882,0.000314751,-0.00730042
25,7,0,0,0,0,0,0,231.8,254,0,0,0,0,0,0,0,231.8,766,0,-7.01519e-05,0.000759735,9.66262e-05,0.0152511,0.00697597,-0.000276413,-0.000347214,-0.000688515,0.0393928,-0.00016037,-0.000332947,0.0116198,-0.0213889,-0.000848732,0.000543633,-0.00768188
25,8,0,0,0,0,0,0,231.8,254,0,0,0,0,0,0,0,231.8,766,0,0.000273171,0.000683441,0.000974007,0.0165863,0.00670895,0.000257645,0.000568314,0.000150719,0.0854743,0.000984039,0.000658874,0.010094,-0.0213889,0.000753441,0.000619926,-0.00924591
25,9,0,0,0,0,0,0,231.8,254,0,0,0,0,0,0,0,231.8,766,0,0.000959816,0.000874176,0.00124104,0.0167389,0.00552639,0.00132576,0.00129311,0.000532188,-0.0575768,0.00109848,0.000773315,0.0109713,-0.0203589,0.00151638,0.00058178,-0.00718597
26,0,0,0,0,0,0,0,231.8,254,0,0,0,0,0,0,0,231.8,766,0,0.0011124,0.0011412,0.000821419,0.0162429,0.00525936,0.000715408,-0.000614243,0.000608482,-0.0261819,0.000488129,0.000849609,0.00978878,-0.0206641,0.000677147,0.000124016,-0.00787262
26,1,0,0,0,0,0,0,231.8,254,0,0,0,0,0,0,0,231.8,766,0,-0.000604209,-0.000956879,0.00112659,0.015747,0.00216946,0.00056282,0.00060646,0.000188866,-0.0037133,-4.59291e-05,0.000506287,0.0151294,-0.0201682,0.000982323,0.000162163,-0.00882629
26,2,0,0,0,0,0,0,231.8,254,0,0,0,0,0,0,0,231.8,766,0,-7.01519e-05,0.000797882,0.000363655,0.0155944,0.00232204,0.000906143,-0.000461655,-0.000154457,0.0683845,0.000488129,-0.000409241,0.0152056,-0.0200537,0.000371971,0.00119213,-0.00852112
26,3,0,0,0,0,0,0,231.8,254,0,0,0,0,0,0,0,231.8,766,0,0.000997963,0.000340118,0.00124104,0.0171966,0.00319942,0.000143204,0.00133125,0.000150719,0.000215836,0.000335541,0.00130737,0.0155871,-0.0207785,0.0012112,0.00126843,-0.00882629
26,4,0,0,0,0,0,0,231.8,254,0,0,0,0,0,0,0,231.8,766,0,0.000502053,0.000874176,0.000859566,0.0168533,0.00178799,0.00193611,0.00148384,0.000379601,-0.0330102,0.00147995,0.000239258,0.0191348,-0.0200156,0.00166897,0.00149731,-0.00699524
26,5,0,0,0,0,0,0,231.8,254,0,0,0,0,0,0,0,231.8,766,0,0.000196877,0.00171341,0.00146992,0.0171966,0.00567898,0.00163094,0.000568314,-0.000230751,0.0769294,0.000449982,0.000162964,0.01738,-0.0202063,0.00124935,0.00103954,-0.00928406
26,6,0,0,0,0,0,0,231.8,254,0,0,0,0,0,0,0,231.8,766,0,0.000807228,0.000301971,0.00093586,0.0170822,0.00358089,0.00151649,0.000415726,0.000150719,-0.00432365,0.00125107,0.000620727,0.0164264,-0.0206259,0.00155453,0.00145916,-0.00840668
26,7,0,0,0,0,0,0,231.8,254,0,0,0,0,0,0,0,231.8,766,0,-0.00022274,0.000454559,-0.000132256,0.0158233,0.000262108,0.000372085,7.24029e-05,3.62778e-05,-0.031141,0.000488129,0.000277405,0.0160449,-0.0209311,0.000600853,0.000505486,-0.00890259
26,8,0,0,0,0,0,0,231.8,254,0,0,0,0,0,0,0,231.8,766,0,0.0011887,0.000607147,0.00055439,0.0157089,0.00243649,-0.000848618,0.000568314,0.000379601,0.0886024,0.000144806,0.000277405,0.0150149,-0.0217322,0.0012875,0.0015736,-0.00936035
26,9,0,0,0,0,0,0,231.8,254,0,0,0,0,0,0,0,231.8,766,0,0.000311318,0.000111236,0.00093586,0.0165481,0.00213131,0.000524673,0.000682754,-0.000307045,0.00109322,0.000373688,0.000773315,0.0157397,-0.0207785,0.000219383,0.00103954,-0.00924591
27,0,0,0,0,0,0,0,231.8,254,0,0,0,0,0,0,0,231.8,766,0,0.000463906,-0.000270233,0.000745125,0.0163574,0.00205502,0.00102058,0.00159828,0.000379601,-0.0352608,0.000640716,0.00176514,0.0162356,-0.0202063,0.00105862,-0.000295601,-0.00882629
27,1,0,0,0,0,0,0,231.8,254,0,0,0,0,0,0,0,231.8,766,0,0.00115055,0.000225677,0.00143177,0.0171585,0.0041531,0.000181351,0.000224991,-1.86916e-06,0.0922645,0.0002211,0.000849609,0.0128787,-0.0205115,-0.000123939,0.000429192,-0.00859741
27,2,0,0,0,0,0,0,231.8,254,0,0,0,0,0,0,0,231.8,766,0,-0.000527916,-3.20468e-06,5.84793e-05,0.0159759,0.00457272,0.000448379,0.000377579,-0.000230751,0.00578529,0.000526275,-0.0002948,0.0134509,-0.0217703,2.86484e-05,0.000925102,-0.00970367
27,3,0,0,0,0,0,0,231.8,254,0,0,0,0,0,0,0,231.8,766,0,0.000692788,0.000416412,0.000363655,0.0164718,0.00483974,0.00105873,0.000568314,0.00076107,-0.0632989,-4.59291e-05,-6.59181e-05,0.0115817,-0.0202444,0.000829735,0.00107769,-0.00882629
27,4,0,0,0,0,0,0,231.8,254,0,0,0,0,0,0,0,231.8,766,0,-3.20049e-05,0.000797882,0.00185139,0.0163192,0.00586971,0.00094429,0.000530167,-0.000574074,-0.0133263,0.00113663,0.000506287,0.0107425,-0.0213126,0.000600853,0.000810661,-0.00886444
27,5,0,0,0,0,0,0,231.8,254,0,0,0,0,0,0,0,231.8,766,0,-0.000260887,0.000607147,0.000783272,0.0157852,0.00609859,0.000181351,0.000415726,0.000227013,0.0242484,0.000373688,-0.000561829,0.0122683,-0.0212363,0.00151638,0.00119213,-0.00859741
27,6,0,0,0,0,0,0,231.8,254,0,0,0,0,0,0,0,231.8,766,0,0.00107426,0.000530853,0.000859566,0.0161666,0.007243,0.00109688,0.00117867,0.000951805,0.0687659,0.00102219,0.00126923,0.0143283,-0.0216177,0.00105862,0.000925102,-0.00863556
27,7,0,0,0,0,0,0,231.8,254,0,0,0,0,0,0,0,231.8,766,0,-0.000451622,0.000416412,0.000478096,0.015747,0.0066708,0.00113502,0.00011055,-0.000650368,-0.0571191,0.0002211,-0.000142212,0.0129168,-0.0208167,0.000677147,4.77219e-05,-0.00863556
27,8,0,0,0,0,0,0,231.8,254,0,0,0,0,0,0,0,231.8,766,0,0.00107426,-0.000727997,0.000478096,0.015213,0.00762447,0.000600967,0.00098793,0.000303307,0.0257362,-0.00126663,0.000429993,0.0137942,-0.0212363,0.000753441,0.000925102,-0.00936035
27,9,0,0,0,0,0,0,231.8,254,0,0,0,0,0,0,0,231.8,766,0,0.000921669,0.000836029,0.000974007,0.0158615,0.00575527,0.00136391,0.00098793,-0.00087925,0.0579704,0.000755157,-0.000256653,0.0166934,-0.0202063,0.000715294,0.000391045,-0.00703339
28,0,0,0,0,0,0,0,231.8,254,0,0,0,0,0,0,0,231.8,766,0,0.000921669,0.00144638,0.000668831,0.0156707,0.00625118,0.000448379,0.000682754,0.000379601,-0.0533425,0.000755157,0.00130737,0.0181048,-0.0203589,-0.000352821,0.00145916,-0.00657562
28,1,0,0,0,0,0,0,231.8,254,0,0,0,0,0,0,0,231.8,766,0,0.000654641,0.000836029,0.00158436,0.0165863,0.0053738,0.00124947,0.000415726,0.000722923,0.0325263,0.000640716,0.000697021,0.0162738,-0.0206641,0.00025753,0.000276604,-0.00848297
28,2,0,0,0,0,0,0,231.8,254,0,0,0,0,0,0,0,231.8,766,0,0.000235024,0.0011412,0.00139362,0.017044,0.0053738,0.00132576,0.00144569,0.000188866,0.0737251,0.00121292,0.00107849,0.0141375,-0.0199393,0.00105862,0.00058178,-0.00901703
28,3,0,0,0,0,0,0,231.8,254,0,0,0,0,0,0,0,231.8,766,0,0.000502053,-0.000499115,0.000897713,0.016777,0.00392422,0.000600967,0.00110237,0.000722923,-0.0573098,-0.000351105,0.000925903,0.00929287,-0.0205878,0.00109676,0.00187878,-0.00928406
28,4,0,0,0,0,0,0,231.8,254,0,0,0,0,0,0,0,231.8,766,0,-0.000108299,0.000492706,-1.78147e-05,0.0150604,0.00541195,0.000791702,0.000644607,-0.000421486,0.0325263,0.000488129,0.00126923,0.0101702,-0.02013,0.000524559,-0.00105854,-0.00909332
28,5,0,0,0,0,0,0,231.8,254,0,0,0,0,0,0,0,231.8,766,0,0.000235024,0.000225677,-0.00100964,0.0158615,0.0048016,0.000600967,0.00129311,0.00076107,0.0802863,-0.000389252,-0.000752564,0.0144427,-0.02116,0.000371971,0.000276604,-0.00821594
28,6,0,0,0,0,0,0,231.8,254,0,0,0,0,0,0,0,231.8,766,0,0.000769082,0.000263824,0.000668831,0.0174255,-0.000195656,0.00117317,0.000568314,0.000837364,-0.0640237,0.0002211,0.000201111,0.0133364,-0.0205115,0.00166897,0.00161175,-0.00722412
28,7,0,0,0,0,0,0,231.8,254,0,0,0,0,0,0,0,231.8,766,0,0.000273171,0.000378265,0.000401802,0.0151367,-0.00172153,-0.000276413,3.42559e-05,0.000188866,-0.0323617,0.000793304,0.000620727,0.0137561,-0.02116,-0.000467262,0.00103954,-0.00775818
28,8,0,0,0,0,0,0,231.8,254,0,0,0,0,0,0,0,231.8,766,0,-0.000566063,0.000569,0.00131733,0.0164337,-0.000195656,0.00117317,0.00060646,0.00026516,-0.00607841,0.000869598,0.000735168,0.0160067,-0.0206641,0.00140194,0.00138287,-0.00943665
28,9,0,0,0,0,0,0,231.8,254,0,0,0,0,0,0,0,231.8,766,0,0.000196877,0.000530853,0.000630684,0.0171966,0.0009869,0.000600967,0.000720901,-4.00161e-05,0.11645,0.000869598,0.000849609,0.0183337,-0.0204733,0.000829735,0.00111584,-0.00852112
29,0,0,0,0,0,0,0,231.8,254,0,0,0,0,0,0,0,231.8,766,0,0.0005402,0.000340118,9.66262e-05,0.01548,-0.00248447,0.000524673,-8.0185e-05,-0.00011631,0.196253,-0.000312958,0.000391846,0.0165408,-0.0213889,0.000753441,0.00176434,-0.00909332
29,1,0,0,0,0,0,0,231.8,254,0,0,0,0,0,0,0,231.8,766,0,0.00141758,0.000988617,0.000706978,0.0162429,-0.00454441,0.000257645,0.00117867,0.00137142,0.153529,0.000144806,0.000315552,0.0157397,-0.0204733,0.0012112,-2.8572e-05,-0.00775818
29,2,0,0,0,0,0,0,231.8,254,0,0,0,0,0,0,0,231.8,766,0,-0.000375328,0.00117935,0.00120289,0.0167007,-0.000233803,0.00113502,0.00152199,0.000951805,0.0986732,0.00159439,0.00115479,0.0205462,-0.0202826,0.00132565,0.00199322,-0.00737671
29,3,0,0,0,0,0,0,231.8,254,0,0,0,0,0,0,0,231.8,766,0,0.00153202,0.00137009,0.000859566,0.017044,-0.000653419,0.00128761,0.000759048,0.000570335,-0.0855386,0.00106033,0.00046814,0.019707,-0.0211218,0.00102047,0.000543633,-0.00890259
29,4,0,0,0,0,0,0,231.8,254,0,0,0,0,0,0,0,231.8,766,0,-0.000299034,-0.000422821,0.000630684,0.0157089,-0.00221745,0.000639114,0.000759048,-0.000535927,-0.0927102,0.000144806,0.000620727,0.0196307,-0.0207785,-0.000162086,0.000352898,-0.00760559
29,5,0,0,0,0,0,0,231.8,254,0,0,0,0,0,0,0,231.8,766,0,0.000883522,0.000263824,-0.000170403,0.01445,-0.00076786,-0.000200119,-0.000576096,0.000112572,0.0419868,-0.000274811,-0.0002948,0.0166934,-0.0216177,0.000982323,0.00020031,-0.00928406
29,6,0,0,0,0,0,0,231.8,254,0,0,0,0,0,0,0,231.8,766,0,0.0005402,3.49423e-05,0.00017292,0.0167389,-0.00156895,0.000105057,0.00060646,0.000608482,-0.0516259,0.000411835,-0.000371094,0.0193637,-0.0223425,0.00147823,0.000963249,-0.00775818
29,7,0,0,0,0,0,0,231.8,254,0,0,0,0,0,0,0,231.8,766,0,0.000120583,-0.000346527,0.000401802,0.0158996,-0.000577125,0.000715408,-0.000499802,0.000455895,-0.0838219,0.000678863,0.000353699,0.0127261,-0.0223044,0.000371971,-0.000104866,-0.00733856
29,8,0,0,0,0,0,0,231.8,254,0,0,0,0,0,0,0,231.8,766,0,0.00103611,0.00148453,0.000249214,0.0155182,0.00255093,0.000143204,0.000415726,0.000799217,0.0548804,-0.00016037,0.00119293,0.00467709,-0.0209311,0.000104942,0.0015736,-0.00947479
29,9,0,0,0,0,0,0,231.8,254,0,0,0,0,0,0,0,231.8,766,0,0.000730935,0.00117935,0.000249214,0.0175781,0.00594601,0.00136391,0.00182716,0.000837364,-0.0320184,0.000945892,0.000620727,0.00906399,-0.0187186,0.00174526,0.000543633,-0.00760559
30,0,0,0,0,0,0,0,231.8,254,0,0,0,0,0,0,0,231.8,766,0,0.000349465,7.30893e-05,0.00143177,0.0168914,0.00503048,0.00121132,0.00152199,0.000951805,-0.0984704,0.0002211,0.000620727,0.0102084,-0.0207785,0.0012875,0.00119213,-0.00844482
30,1,0,0,0,0,0,0,231.8,254,0,0,0,0,0,0,0,231.8,766,0,0.000730935,0.000797882,-0.00032299,0.0161285,0.00586971,0.00094429,0.000911636,-0.000841103,-0.040754,0.00071701,0.000849609,0.0156253,-0.0208929,0.00109676,0.00115398,-0.00855927
30,2,0,0,0,0,0,0,231.8,254,0,0,0,0,0,0,0,231.8,766,0,0.000807228,0.000225677,0.0010503,0.0165481,0.00400051,0.00105873,0.00060646,0.000570335,-0.00192039,0.000411835,8.66698e-05,0.0217669,-0.0209692,0.00113491,0.000886955,-0.00775818
30,3,0,0,0,0,0,0,231.8,254,0,0,0,0,0,0,0,231.8,766,0,0.000769082,0.000340118,0.000821419,0.0165481,0.0053738,0.000867996,0.00144569,0.0016766,0.0401939,0.00113663,0.00111664,0.0198977,-0.0197867,0.0018597,0.00111584,-0.0081778
30,4,0,0,0,0,0,0,231.8,254,0,0,0,0,0,0,0,231.8,766,0,0.000425759,0.000530853,0.000706978,0.0168914,0.00670895,2.87627e-05,3.42559e-05,0.000608482,-0.0719964,0.00163254,0.00111664,0.0158541,-0.0197104,0.00124935,0.000848808,-0.00852112
30,5,0,0,0,0,0,0,231.8,254,0,0,0,0,0,0,0,231.8,766,0,0.000578347,0.000263824,0.000478096,0.0150985,0.00522121,0.000867996,0.000568314,-0.000230751,0.0214637,0.000793304,-0.000599976,0.0136035,-0.0214651,6.67954e-05,0.000925102,-0.0103903
30,6,0,0,0,0,0,0,231.8,254,0,0,0,0,0,0,0,231.8,766,0,0.000502053,-0.000651703,-0.000246697,0.0158233,0.00270351,-0.000238266,0.000759048,0.000494041,0.0475562,-0.000808869,0.000773315,0.0133364,-0.0209692,0.000906029,0.000619926,-0.00863556
30,7,0,0,0,0,0,0,231.8,254,0,0,0,0,0,0,0,231.8,766,0,6.14207e-06,0.000454559,0.00093586,0.0161666,0.00277981,0.00094429,0.000682754,0.000379601,-0.0631081,0.00102219,-0.00067627,0.0119632,-0.0209692,0.00102047,0.000162163,-0.00844482
30,8,0,0,0,0,0,0,231.8,254,0,0,0,0,0,0,0,231.8,766,0,0.000387612,0.000988617,0.000821419,0.0166244,0.00457272,0.000982437,0.000339432,0.000646629,0.0293601,0.00170883,0.000887756,0.0124591,-0.0202063,0.00140194,0.000238457,-0.00722412
30,9,0,0,0,0,0,0,231.8,254,0,0,0,0,0,0,0,231.8,766,0,0.00137943,0.000988617,0.0010503,0.016777,0.00144466,-0.000123825,0.000377579,0.000608482,0.0673545,0.000678863,0.00130737,0.0132602,-0.0196341,0.00124935,0.000848808,-0.0081778
31,0,0,0,0,0,0,0,231.8,254,0,0,0,0,0,0,0,231.8,766,0,0.000692788,0.00140823,0.00143177,0.0173874,0.000872459,0.000715408,-3.89107e-06,0.000989952,-0.0563561,0.000602569,8.66698e-05,0.0125735,-0.0211981,0.00140194,0.00126843,-0.00813965
31,1,0,0,0,0,0,0,231.8,254,0,0,0,0,0,0,0,231.8,766,0,0.000387612,-0.00030838,-0.000475578,0.0164337,-0.00267521,0.000257645,0.000263138,-0.000345192,0.0339378,0.000564422,0.000429993,0.0121157,-0.0210074,0.000906029,0.00107769,-0.00882629
31,2,0,0,0,0,0,0,231.8,254,0,0,0,0,0,0,0,231.8,766,0,0.00115055,0.000149383,0.000668831,0.0159759,-0.000882301,0.00121132,0.000873489,0.0010281,0.0793708,0.00117477,-2.77711e-05,0.0152819,-0.0208548,0.00147823,0.000886955,-0.00756744
31,3,0,0,0,0,0,0,231.8,254,0,0,0,0,0,0,0,231.8,766,0,0.000463906,0.00167526,0.000897713,0.0171203,0.00174984,0.00140205,0.00148384,0.00148586,-0.060209,0.000449982,0.000773315,0.0158541,-0.0206641,0.00182156,0.00111584,-0.00794891
31,4,0,0,0,0,0,0,231.8,254,0,0,0,0,0,0,0,231.8,766,0,0.000463906,0.000492706,0.000630684,0.0166244,0.000338402,-8.56782e-05,0.00125496,0.000455895,-0.0274407,0.00071701,0.00153625,0.0167697,-0.0219992,0.000753441,0.000658073,-0.0093222
31,5,0,0,0,0,0,0,231.8,254,0,0,0,0,0,0,0,231.8,766,0,0.000463906,0.000416412,0.000668831,0.0163574,0.0028561,0.00159279,0.00102608,0.000837364,-0.00508659,0.00121292,0.00145996,0.0185626,-0.0203207,0.000333824,0.00130657,-0.00722412
31,6,0,0,0,0,0,0,231.8,254,0,0,0,0,0,0,0,231.8,766,0,0.000578347,-0.00030838,0.00055439,0.0167389,0.00495419,-0.000390854,0.000835342,-1.86916e-06,0.0662864,-0.000236664,0.000697021,0.0153964,-0.0213507,2.86484e-05,0.00145916,-0.00897888
31,7,0,0,0,0,0,0,231.8,254,0,0,0,0,0,0,0,231.8,766,0,0.000692788,-7.94986e-05,0.000859566,0.0164337,0.00682339,0.000143204,0.000568314,-0.00011631,0.000253983,0.000869598,0.000315552,0.0175326,-0.0207404,0.0012875,0.00115398,-0.00970367
31,8,0,0,0,0,0,0,231.8,254,0,0,0,0,0,0,0,231.8,766,0,0.000616494,0.000225677,0.000325508,0.0167007,0.00819668,0.000982437,0.000377579,0.00133327,-0.0293099,0.000678863,0.0010022,0.0150912,-0.0204733,0.00178341,0.00164989,-0.00772003
31,9,0,0,0,0,0,0,231.8,254,0,0,0,0,0,0,0,231.8,766,0,0.000807228,0.00106491,0.000821419,0.0159378,0.007243,0.00189796,0.00121681,0.00125698,0.078379,0.000793304,0.0010022,0.0140994,-0.0208548,0.00174526,0.000925102,-0.00733856
32,0,0,0,0,0,0,0,231.8,254,0,0,0,0,0,0,0,231.8,766,0,0.000807228,0.000836029,0.000821419,0.0169677,0.00640377,0.000867996,0.00049202,0.0010281,-0.000280075,0.000984039,8.66698e-05,0.0139468,-0.0202826,0.000639,0.00164989,-0.00955109
32,1,0,0,0,0,0,0,231.8,254,0,0,0,0,0,0,0,231.8,766,0,4.4289e-05,-0.000270233,2.03323e-05,0.0163574,0.00621304,0.000295792,0.000644607,0.000379601,-0.0270592,0.000144806,0.00046814,0.0123828,-0.0207404,0.000944176,-0.00018116,-0.00875
32,2,0,0,0,0,0,0,231.8,254,0,0,0,0,0,0,0,231.8,766,0,0.000273171,-0.000232087,0.000325508,0.0159378,0.00953182,0.000410232,0.000415726,-0.000764809,0.0911582,0.000602569,8.66698e-05,0.0120776,-0.0208929,0.000753441,-0.000486336,-0.00867371
32,3,0,0,0,0,0,0,231.8,254,0,0,0,0,0,0,0,231.8,766,0,0.000921669,-0.000384674,0.000821419,0.0158996,0.00846371,0.000867996,-0.000194626,-1.86916e-06,0.00464088,-0.000847016,1.03759e-05,0.0107425,-0.0211981,0.00105862,0.000810661,-0.00813965
32,4,0,0,0,0,0,0,231.8,254,0,0,0,0,0,0,0,231.8,766,0,0.00137943,3.49423e-05,0.000821419,0.0158996,0.0078915,0.000105057,0.000797195,0.000722923,-0.0297677,0.000869598,-0.000218506,0.0115817,-0.0209311,0.00109676,0.000467339,-0.00787262
32,5,0,0,0,0,0,0,231.8,254,0,0,0,0,0,0,0,231.8,766,0,0.00172276,0.000416412,0.000630684,0.0172348,0.00892147,0.000867996,0.00140755,0.00121883,0.0961936,0.0014418,1.03759e-05,0.0190966,-0.0208167,0.000982323,0.00107769,-0.00718597
32,6,0,0,0,0,0,0,231.8,254,0,0,0,0,0,0,0,231.8,766,0,0.000311318,0.000607147,0.00093586,0.0162429,0.00812038,0.000715408,0.00060646,0.000684776,0.00933296,0.000488129,-0.000256653,0.0152438,-0.021694,0.000562706,0.00138287,-0.00829224
32,7,0,0,0,0,0,0,231.8,254,0,0,0,0,0,0,0,231.8,766,0,-0.000260887,-0.000155793,0.00101215,0.0162811,0.00636562,0.000829849,0.000263138,0.00125698,-0.0590646,0.000564422,0.000620727,0.00860622,-0.0203207,0.000448265,-0.000371895,-0.00958923
32,8,0,0,0,0,0,0,231.8,254,0,0,0,0,0,0,0,231.8,766,0,-0.000642356,0.000912323,0.000974007,0.0165481,0.00831112,0.000715408,0.000415726,0.000608482,-0.00954979,0.000297394,0.0010022,0.00376156,-0.0208167,0.000867882,0.00123028,-0.00913147
32,9,0,0,0,0,0,0,231.8,254,0,0,0,0,0,0,0,231.8,766,0,0.000730935,0.00018753,0.000325508,0.0164337,0.0102185,0.000867996,0.000682754,0.000646629,0.025698,0.00102219,-0.000256653,0.0105136,-0.0209692,0.00147823,0.000391045,-0.00863556
33,0,0,0,0,0,0,0,231.8,254,0,0,0,0,0,0,0,231.8,766,0,0.000807228,0.00117935,0.000859566,0.0167007,0.00842556,0.00193611,0.00148384,0.00121883,0.0644172,0.000678863,0.00123108,0.0134127,-0.0206641,0.00132565,0.00103954,-0.00779633
33,1,0,0,0,0,0,0,231.8,254,0,0,0,0,0,0,0,231.8,766,0,0.00145573,0.00117935,0.000439949,0.0163192,0.00728115,0.00109688,0.0013694,0.000379601,-0.0510537,0.00102219,-0.000104065,0.00967434,-0.0208167,0.00216488,0.0015736,-0.0093222
33,2,0,0,0,0,0,0,231.8,254,0,0,0,0,0,0,0,231.8,766,0,8.2436e-05,0.000454559,0.00146992,0.0171203,0.00773891,0.00109688,0.000797195,0.0010281,0.031153,0.000945892,0.00130737,0.010628,-0.0207022,0.00151638,0.000886955,-0.00798706
33,3,0,0,0,0,0,0,231.8,254,0,0,0,0,0,0,0,231.8,766,0,0.00103611,0.00129379,0.00093586,0.0163574,0.00686153,0.00132576,0.000911636,0.00110439,0.0604499,0.000411835,0.00130737,0.0132983,-0.0204733,0.00124935,0.000848808,-0.00737671
33,4,0,0,0,0,0,0,231.8,254,0,0,0,0,0,0,0,231.8,766,0,0.00103611,0.000836029,0.00093586,0.0162429,0.00522121,-0.000161972,0.000263138,0.000875511,-0.0491463,0.000526275,-0.000218506,0.013222,-0.0209311,0.000753441,4.77219e-05,-0.00737671
33,5,0,0,0,0,0,0,231.8,254,0,0,0,0,0,0,0,231.8,766,0,-0.00022274,-0.000766144,0.000401802,0.0152893,0.00426754,0.000333939,0.000339432,0.000112572,0.0353873,0.000106659,-0.000523682,0.0138705,-0.0217322,0.000486412,4.77219e-05,-0.00867371
33,6,0,0,0,0,0,0,231.8,254,0,0,0,0,0,0,0,231.8,766,0,0.000997963,0.000454559,0.000211067,0.0153656,0.00564083,0.000257645,-0.000461655,0.000303307,0.0742591,0.000831451,0.00145996,0.0123446,-0.0212744,0.00124935,0.0010014,-0.00985626
33,7,0,0,0,0,0,0,231.8,254,0,0,0,0,0,0,0,231.8,766,0,0.000997963,0.000912323,-5.59617e-05,0.0165481,0.00583157,0.00056282,0.000720901,3.62778e-05,-0.0533807,0.000793304,-0.000218506,0.0149768,-0.0204352,0.000410118,0.000352898,-0.00768188
33,8,0,0,0,0,0,0,231.8,254,0,0,0,0,0,0,0,231.8,766,0,0.00149387,0.00095047,0.000859566,0.0159378,0.00483974,0.00056282,0.000797195,0.00106625,0.0367225,0.000984039,-0.0002948,0.0164264,-0.0209692,0.00124935,0.0015736,-0.00749115
33,9,0,0,0,0,0,0,231.8,254,0,0,0,0,0,0,0,231.8,766,0,0.000997963,0.000721588,0.000630684,0.017044,0.00693783,0.000410232,-0.00027092,0.00118069,0.0815833,0.00121292,0.000925903,0.0181811,-0.0204352,0.00102047,-0.000257454,-0.00871185
34,0,0,0,0,0,0,0,231.8,254,0,0,0,0,0,0,0,231.8,766,0,0.00015873,0.00117935,0.000325508,0.0168151,0.00224575,0.00124947,0.000263138,-0.000154457,-0.0609338,0.00125107,0.000429993,0.016846,-0.0208929,0.000829735,-0.000677071,-0.00703339
34,1,0,0,0,0,0,0,231.8,254,0,0,0,0,0,0,0,231.8,766,0,0.000883522,0.000607147,0.000668831,0.0165863,0.00518307,0.00105873,0.000759048,0.000303307,-0.0296914,0.000373688,-0.00101959,0.016846,-0.0206259,0.000448265,0.000925102,-0.00813965
34,2,0,0,0,0,0,0,231.8,254,0,0,0,0,0,0,0,231.8,766,0,0.000769082,0.000645294,0.000974007,0.0159759,0.00369534,0.000333939,0.000644607,0.000532188,-0.00733726,0.000640716,0.000735168,0.0165408,-0.0207404,0.000791588,-0.000257454,-0.00871185
34,3,0,0,0,0,0,0,231.8,254,0,0,0,0,0,0,0,231.8,766,0,0.000730935,0.000340118,0.00093586,0.0162048,0.00712856,0.00128761,0.000720901,-0.000230751,0.0633872,0.000793304,0.00123108,0.01738,-0.0197104,0.000791588,0.000848808,-0.00806335
34,4,0,0,0,0,0,0,231.8,254,0,0,0,0,0,0,0,231.8,766,0,0.00115055,0.0011412,-0.000246697,0.0168151,0.00823482,0.00102058,0.00125496,0.000989952,-0.00104301,-0.0017244,0.00176514,0.0175708,-0.0199393,0.000600853,0.00115398,-0.00813965
34,5,0,0,0,0,0,0,231.8,254,0,0,0,0,0,0,0,231.8,766,0,-0.000451622,0.000645294,0.00055439,0.0149841,0.0048016,0.000600967,-0.000347214,0.000227013,-0.0367486,0.000144806,-0.000218506,0.0146334,-0.0208167,0.000486412,0.00020031,-0.00867371
34,6,0,0,0,0,0,0,231.8,254,0,0,0,0,0,0,0,231.8,766,0,0.0011124,0.000454559,0.000821419,0.0156326,0.00510677,0.000257645,-0.000232773,0.00026516,0.0736869,0.00102219,0.0010022,0.0141375,-0.0217322,-9.49856e-06,0.000619926,-0.00886444
34,7,0,0,0,0,0,0,231.8,254,0,0,0,0,0,0,0,231.8,766,0,0.000463906,-7.94986e-05,-0.000399284,0.0153656,0.00461086,-0.000810471,0.000415726,0.00076107,-0.00684135,0.00113663,-0.000104065,0.0131839,-0.0215796,0.000219383,8.58689e-05,-0.00730042
34,8,0,0,0,0,0,0,231.8,254,0,0,0,0,0,0,0,231.8,766,0,0.000425759,0.000836029,0.00135548,0.0168914,0.00400051,0.00056282,-0.000347214,0.000989952,-0.0327813,0.00132736,0.00046814,0.0124209,-0.0202826,0.00159267,0.0015736,-0.00798706
34,9,0,0,0,0,0,0,231.8,254,0,0,0,0,0,0,0,231.8,766,0,0.000425759,0.0012175,0.00017292,0.0151367,0.00380978,-8.56782e-05,0.00178902,3.62778e-05,0.0870002,0.000144806,-0.000180359,0.0122302,-0.0210455,0.000791588,0.000543633,-0.00913147
35,0,0,0,0,0,0,0,231.8,254,0,0,0,0,0,0,0,231.8,766,0,0.00134129,3.49423e-05,0.00108845,0.0158233,0.00365719,0.000524673,0.000301285,-0.00011631,-0.00100487,0.000984039,0.000506287,0.012955,-0.02116,0.000410118,0.000619926,-0.00775818
35,1,0,0,0,0,0,0,231.8,254,0,0,0,0,0,0,0,231.8,766,0,0.000692788,0.000683441,-9.41086e-05,0.0163192,0.00197872,0.000448379,0.00011055,0.000913658,-0.0364816,-8.40761e-05,0.00115479,0.0151675,-0.021427,0.000143089,0.00134472,-0.00901703
35,2,0,0,0,0,0,0,231.8,254,0,0,0,0,0,0,0,231.8,766,0,0.00130314,0.000569,0.0010503,0.0155563,-0.000386391,-0.000619736,0.000797195,0.0010281,0.0909675,0.00155624,-0.000485535,0.0151294,-0.0207404,-8.57925e-05,0.00184063,-0.0075293
35,3,0,0,0,0,0,0,231.8,254,0,0,0,0,0,0,0,231.8,766,0,0.00107426,0.00110306,0.00173695,0.0167389,0.00216946,0.000372085,-3.89107e-06,0.000570335,0.00422127,0.00113663,0.00126923,0.0142901,-0.0202444,-8.57925e-05,0.00237469,-0.00871185
35,4,0,0,0,0,0,0,231.8,254,0,0,0,0,0,0,0,231.8,766,0,0.000769082,0.00117935,0.000134773,0.0163192,-0.00118748,-0.000276413,0.000224991,-0.000230751,-0.0648629,0.00113663,0.00107849,0.0150531,-0.0208167,0.000600853,-0.00102039,-0.00894073
35,5,0,0,0,0,0,0,231.8,254,0,0,0,0,0,0,0,231.8,766,0,0.000997963,0.000492706,-1.78147e-05,0.0158996,-0.000806007,0.000257645,-8.0185e-05,0.000455895,-0.0130212,0.000755157,-0.000218506,0.0145572,-0.0199774,0.000906029,0.000238457,-0.00848297
35,6,0,0,0,0,0,0,231.8,254,0,0,0,0,0,0,0,231.8,766,0,0.000692788,0.000912323,0.000478096,0.0166244,0.00117764,0.000867996,0.00121681,0.000532188,0.0367988,-0.000274811,0.00046814,0.0146334,-0.0203207,0.000982323,0.00199322,-0.00829224
35,7,0,0,0,0,0,0,231.8,254,0,0,0,0,0,0,0,231.8,766,0,0.00126499,0.000263824,0.000859566,0.0163192,0.00182613,0.00102058,0.00129311,-7.81631e-05,0.182825,0.000640716,0.000658874,0.0173419,-0.0191382,0.00151638,0.000467339,-0.00916962
35,8,0,0,0,0,0,0,231.8,254,0,0,0,0,0,0,0,231.8,766,0,0.00164646,0.00106491,0.000897713,0.0168914,0.000872459,0.00109688,0.00178902,0.0010281,0.172106,0.00155624,0.000925903,0.0182193,-0.0205496,0.000753441,0.00191692,-0.00714783
35,9,0,0,0,0,0,0,231.8,254,0,0,0,0,0,0,0,231.8,766,0,0.00103611,0.00201858,0.0016988,0.0167007,-0.000157509,0.000982437,0.00098793,0.000837364,0.138842,0.000564422,0.000887756,0.0161593,-0.021694,0.00105862,0.00138287,-0.00836853
36,0,0,0,0,0,0,0,231.8,254,0,0,0,0,0,0,0,231.8,766,0,0.00153202,0.000721588,0.00162251,0.0164337,0.00167355,0.00151649,0.000224991,-7.81631e-05,0.0142158,0.00277695,0.000391846,0.0134509,-0.0191,0.0012875,8.58689e-05,-0.00878815
36,1,0,0,0,0,0,0,231.8,254,0,0,0,0,0,0,0,231.8,766,0,0.000692788,0.000301971,0.000745125,0.0166244,0.00380978,0.000867996,0.000949783,0.000646629,-0.129064,-0.000312958,0.00111664,0.0166552,-0.0207404,0.00102047,0.000314751,-0.0075293
36,2,0,0,0,0,0,0,231.8,254,0,0,0,0,0,0,0,231.8,766,0,0.000959816,0.000836029,0.000516243,0.0169296,0.00426754,0.00094429,0.00129311,0.00121883,-0.0125253,0.000945892,0.00104034,0.0168078,-0.0204733,0.000562706,0.00130657,-0.00844482
36,3,0,0,0,0,0,0,231.8,254,0,0,0,0,0,0,0,231.8,766,0,0.00115055,0.000683441,0.00146992,0.0156326,0.00522121,0.000867996,0.000568314,0.000532188,0.0264228,0.00113663,0.000506287,0.0112002,-0.0190619,0.00155453,0.00203136,-0.00844482
36,4,0,0,0,0,0,0,231.8,254,0,0,0,0,0,0,0,231.8,766,0,0.00126499,0.000530853,0.00131733,0.0163192,0.00506863,6.69097e-05,0.000301285,0.000913658,-0.105795,0.00147995,0.0010022,0.0148242,-0.0207404,-0.000505409,0.00184063,-0.00852112
36,5,0,0,0,0,0,0,231.8,254,0,0,0,0,0,0,0,231.8,766,0,-0.000299034,0.000225677,0.000325508,0.0158233,0.0048016,0.000295792,0.000148697,-0.00011631,-0.00668877,0.000411835,0.000315552,0.0237124,-0.0210455,-8.57925e-05,4.77219e-05,-0.0093985
36,6,0,0,0,0,0,0,231.8,254,0,0,0,0,0,0,0,231.8,766,0,0.00107426,0.000912323,0.000287361,0.0150985,0.00461086,-0.000161972,-0.000156479,0.000379601,0.0438941,-0.000465546,0.000658874,0.0218814,-0.0216559,0.000219383,0.000734367,-0.00890259
36,7,0,0,0,0,0,0,231.8,254,0,0,0,0,0,0,0,231.8,766,0,0.000769082,-0.000460968,0.000974007,0.0162048,0.00152096,0.000333939,-0.000118332,0.000188866,-0.0976693,0.00163254,0.000239258,0.0187152,-0.0205115,0.00105862,0.000772514,-0.00955109
36,8,0,0,0,0,0,0,231.8,254,0,0,0,0,0,0,0,231.8,766,0,0.000273171,0.00110306,0.00116474,0.0166626,0.000719872,0.000791702,0.000186844,3.62778e-05,-0.0602853,0.00186142,0.000544433,0.018677,-0.0208929,0.00109676,0.00138287,-0.00859741
36,9,0,0,0,0,0,0,231.8,254,0,0,0,0,0,0,0,231.8,766,0,0.000578347,0.00110306,0.000706978,0.0160522,-4.92088e-06,0.00102058,0.000415726,0.000379601,-0.0333154,0.00117477,1.03759e-05,0.0182574,-0.0205115,0.000791588,0.00115398,-0.00875
37,0,0,0,0,0,0,0,231.8,254,0,0,0,0,0,0,0,231.8,766,0,0.000349465,0.00125565,0.00124104,0.0164337,-0.000806007,0.000867996,0.000873489,-0.00049778,0.043093,0.00102219,0.000124817,0.0161593,-0.020397,0.000829735,0.000467339,-0.00821594
37,1,0,0,0,0,0,0,231.8,254,0,0,0,0,0,0,0,231.8,766,0,0.00107426,0.000340118,0.00143177,0.0172348,0.0022076,0.00109688,0.000224991,-1.86916e-06,-0.0240838,0.00132736,0.00123108,0.0153201,-0.0199774,0.00113491,0.00119213,-0.00928406
37,2,0,0,0,0,0,0,231.8,254,0,0,0,0,0,0,0,231.8,766,0,0.0011124,0.00133194,2.03323e-05,0.0168151,0.00232204,0.00140205,0.000644607,0.00076107,-0.0476968,0.00140366,0.000773315,0.0175708,-0.0200156,0.00136379,0.00206951,-0.00836853
37,3,0,0,0,0,0,0,231.8,254,0,0,0,0,0,0,0,231.8,766,0,0.0011887,0.000645294,0.00162251,0.0167389,0.000872459,0.00185982,0.00159828,0.000913658,0.0622047,0.000831451,0.000925903,0.0123446,-0.0202826,0.00178341,0.000429192,-0.00806335
37,4,0,0,0,0,0,0,231.8,254,0,0,0,0,0,0,0,231.8,766,0,0.00164646,0.00129379,0.00112659,0.0167389,0.00277981,0.000753555,0.000339432,0.000722923,-0.0174844,0.00201401,0.000925903,0.0122683,-0.019863,0.001936,0.00142101,-0.00878815
37,5,0,0,0,0,0,0,231.8,254,0,0,0,0,0,0,0,231.8,766,0,0.000959816,0.000454559,0.00139362,0.0151367,0.0035046,-0.000390854,0.000644607,-4.00161e-05,-0.0367867,0.000678863,1.03759e-05,0.0146334,-0.0217322,0.000753441,-0.000524483,-0.00783447
37,6,0,0,0,0,0,0,231.8,254,0,0,0,0,0,0,0,231.8,766,0,0.000120583,0.000454559,2.03323e-05,0.0158996,0.00236019,0.000600967,0.000186844,0.000684776,0.0812019,0.000335541,0.000544433,0.0147479,-0.0208167,-0.000123939,0.000505486,-0.00878815
37,7,0,0,0,0,0,0,231.8,254,0,0,0,0,0,0,0,231.8,766,0,0.00122685,0.000988617,0.00154621,0.0165481,0.0041531,0.000867996,0.00121681,0.000875511,-0.00241631,0.00163254,0.00123108,0.012955,-0.0200156,0.00136379,0.000543633,-0.00875
37,8,0,0,0,0,0,0,231.8,254,0,0,0,0,0,0,0,231.8,766,0,0.000845375,0.000378265,0.000974007,0.0163574,0.00319942,0.000600967,0.00098793,0.000455895,-0.0357568,0.000678863,0.00107849,0.014519,-0.0195959,0.000486412,-0.00018116,-0.00958923
37,9,0,0,0,0,0,0,231.8,254,0,0,0,0,0,0,0,231.8,766,0,0.000692788,-0.000537262,-0.000437431,0.0161285,0.00323757,-0.000352707,0.000377579,-0.000345192,0.0896323,0.000488129,0.000773315,0.0122302,-0.0219611,6.67954e-05,-0.000257454,-0.010047
38,0,0,0,0,0,0,0,231.8,254,0,0,0,0,0,0,0,231.8,766,0,-0.000146446,0.000530853,0.000668831,0.0150604,0.00632748,0.000715408,0.000720901,0.000227013,0.00685341,0.000449982,-0.000447388,0.011391,-0.0209692,0.000639,-0.000371895,-0.00863556
38,1,0,0,0,0,0,0,231.8,254,0,0,0,0,0,0,0,231.8,766,0,0.000807228,0.000874176,0.00166065,0.0160141,0.00541195,0.000715408,-0.000499802,-0.000764809,-0.0603234,0.0020903,0.00046814,0.012192,-0.0213507,0.000448265,-6.6719e-05,-0.00886444
38,2,0,0,0,0,0,0,231.8,254,0,0,0,0,0,0,0,231.8,766,0,0.0011124,-3.20468e-06,-0.000399284,0.0166244,0.00644192,-0.00031456,0.000682754,-4.00161e-05,-0.00954979,0.00182327,0.000239258,0.0128787,-0.0210455,0.000371971,0.000238457,-0.00772003
38,3,0,0,0,0,0,0,231.8,254,0,0,0,0,0,0,0,231.8,766,0,0.000311318,0.000874176,0.000745125,0.0165481,0.00422939,0.00102058,0.00110237,0.000227013,0.0232185,0.00109848,0.000315552,0.0160449,-0.0211218,0.000791588,0.000429192,-0.0081015
38,4,0,0,0,0,0,0,231.8,254,0,0,0,0,0,0,0,231.8,766,0,0.000578347,0.00125565,0.000745125,0.0159378,0.0048016,0.000715408,0.000453873,0.000417748,0.0638831,0.000640716,0.00046814,0.0178759,-0.0199774,0.00140194,-0.000257454,-0.00951294
38,5,0,0,0,0,0,0,231.8,254,0,0,0,0,0,0,0,231.8,766,0,-0.00071865,-0.000422821,0.000211067,0.0156707,0.00174984,-8.56782e-05,0.000148697,0.000341454,-0.0497948,0.000984039,-0.000142212,0.0180667,-0.0215796,0.000639,0.000619926,-0.00871185
38,6,0,0,0,0,0,0,231.8,254,0,0,0,0,0,0,0,231.8,766,0,0.000502053,-3.20468e-06,-0.000551872,0.015747,0.00461086,0.000753555,0.000224991,0.000303307,0.0333274,0.000945892,-0.000485535,0.015549,-0.02116,0.000181236,-0.000333748,-0.00775818
38,7,0,0,0,0,0,0,231.8,254,0,0,0,0,0,0,0,231.8,766,0,0.00153202,0.000836029,0.00124104,0.016777,0.00628933,0.000486526,0.00178902,0.000913658,0.0614799,0.00113663,0.00138367,0.0157779,-0.0205496,0.000867882,0.000886955,-0.00951294
38,8,0,0,0,0,0,0,231.8,254,0,0,0,0,0,0,0,231.8,766,0,0.00130314,0.00117935,0.0010503,0.0164718,0.00873074,0.00132576,0.00129311,-0.00011631,-0.0442635,0.000945892,0.00115479,0.0171511,-0.0195197,0.00124935,0.000772514,-0.0081015
38,9,0,0,0,0,0,0,231.8,254,0,0,0,0,0,0,0,231.8,766,0,0.000578347,0.00148453,0.000249214,0.0164718,0.00842556,0.00121132,0.000224991,0.000875511,0.0397361,0.00113663,-0.000142212,0.0171893,-0.0213507,0.000524559,0.00149731,-0.00779633
39,0,0,0,0,0,0,0,231.8,254,0,0,0,0,0,0,0,231.8,766,0,0.000845375,0.00018753,0.00127918,0.0163192,0.00525936,0.00117317,0.00060646,0.000494041,0.0771583,0.000907745,0.00199402,0.0179141,-0.0207404,0.00105862,0.000238457,-0.00829224
39,1,0,0,0,0,0,0,231.8,254,0,0,0,0,0,0,0,231.8,766,0,0.0011887,0.00110306,0.00120289,0.0164337,0.00400051,0.000639114,0.000720901,0.00076107,-0.0484978,0.00159439,-0.000104065,0.0179522,-0.0205115,0.00144009,0.0022221,-0.00756744
39,2,0,0,0,0,0,0,231.8,254,0,0,0,0,0,0,0,231.8,766,0,0.00015873,-0.00030838,0.000516243,0.0162811,0.00453457,-9.38424e-06,0.000453873,7.44248e-05,0.0390876,-0.000122223,0.00123108,0.0158541,-0.0221899,0.000524559,-0.00018116,-0.00966553
39,3,0,0,0,0,0,0,231.8,254,0,0,0,0,0,0,0,231.8,766,0,0.000921669,0.00110306,0.000783272,0.0166626,0.00552639,0.00166908,0.00140755,0.00076107,0.0834144,0.00125107,0.000811462,0.0144427,-0.0202826,0.0012875,0.00058178,-0.00707153
39,4,0,0,0,0,0,0,231.8,254,0,0,0,0,0,0,0,231.8,766,0,0.00107426,0.00018753,0.00135548,0.0166626,0.00377163,0.00189796,0.00117867,0.000684776,-0.0574624,0.00109848,0.000658874,0.0115435,-0.0200537,0.0012112,0.00058178,-0.00943665
39,5,0,0,0,0,0,0,231.8,254,0,0,0,0,0,0,0,231.8,766,0,0.000692788,0.00110306,0.000668831,0.0155563,0.00571712,0.00128761,0.000873489,0.000303307,-0.0254571,0.000373688,0.000735168,0.0107806,-0.0203589,0.000791588,0.000162163,-0.0093222
39,6,0,0,0,0,0,0,231.8,254,0,0,0,0,0,0,0,231.8,766,0,-0.000108299,0.00137009,0.00131733,0.0156707,0.00945553,0.000906143,-0.000804977,0.000417748,-0.00218742,0.00140366,0.00126923,0.0134127,-0.020397,0.00124935,0.00218395,-0.00859741
39,7,0,0,0,0,0,0,231.8,254,0,0,0,0,0,0,0,231.8,766,0,-0.000108299,0.000759735,0.00139362,0.0175018,0.00773891,0.00193611,0.00114052,0.000341454,0.0681174,0.0014418,0.00126923,0.012955,-0.0199393,0.00166897,0.000772514,-0.00775818
39,8,0,0,0,0,0,0,231.8,254,0,0,0,0,0,0,0,231.8,766,0,0.00160831,0.00117935,0.00124104,0.0163574,0.00689968,0.000753555,0.00102608,0.00125698,0.000215836,0.000984039,0.00161255,0.0161212,-0.0200919,0.00197414,0.00107769,-0.00798706
39,9,0,0,0,0,0,0,231.8,254,0,0,0,0,0,0,0,231.8,766,0,0.000616494,0.00205673,0.00127918,0.0172729,0.00968441,0.000219498,0.000797195,0.000951805,-0.0320184,0.00163254,0.00119293,0.0185626,-0.0191382,0.00117306,0.00210766,-0.00768188
40,0,0,0,0,0,0,0,231.8,254,0,0,0,0,0,0,0,231.8,766,0,0.000921669,0.00110306,0.000897713,0.0169677,0.00762447,0.000715408,0.00133125,-0.000726662,0.0742973,0.00140366,0.00111664,0.0162738,-0.0201682,0.001936,0.00058178,-0.00844482
40,1,0,0,0,0,0,0,231.8,254,0,0,0,0,0,0,0,231.8,766,0,0.00015873,7.30893e-05,0.000516243,0.0164337,0.00678524,0.00056282,3.42559e-05,0.000227013,-0.0024926,0.000373688,0.000353699,0.017113,-0.0202063,0.0012875,0.000352898,-0.00775818
40,2,0,0,0,0,0,0,231.8,254,0,0,0,0,0,0,0,231.8,766,0,0.000349465,0.000721588,-1.78147e-05,0.0165863,0.0066708,0.000105057,0.000263138,-0.000421486,-0.0310265,-0.000274811,0.000162964,0.0176852,-0.0203207,0.0012875,0.000772514,-0.00890259
40,3,0,0,0,0,0,0,231.8,254,0,0,0,0,0,0,0,231.8,766,0,-0.000375328,7.30893e-05,0.000211067,0.0150985,0.00609859,0.000333939,-0.000919418,0.00110439,0.0877631,0.0002211,-0.0002948,0.0124209,-0.0223425,-9.49856e-06,-2.8572e-05,-0.00905518
40,4,0,0,0,0,0,0,231.8,254,0,0,0,0,0,0,0,231.8,766,0,0.000654641,0.00140823,0.0010503,0.0172729,0.00583157,6.69097e-05,0.00125496,0.000494041,0.00231392,3.03648e-05,0.000544433,0.0149005,-0.0209311,-4.76455e-05,0.000925102,-0.00844482
40,5,0,0,0,0,0,0,231.8,254,0,0,0,0,0,0,0,231.8,766,0,0.000616494,0.000378265,0.000974007,0.0157852,0.00319942,0.000219498,0.000644607,-7.81631e-05,-0.0336968,0.000907745,0.00123108,0.014252,-0.0208167,0.000829735,0.000314751,-0.00871185
40,6,0,0,0,0,0,0,231.8,254,0,0,0,0,0,0,0,231.8,766,0,0.000616494,0.000645294,-0.000666313,0.0168914,0.00148281,2.87627e-05,0.00102608,0.000112572,0.0907767,0.000831451,-0.000142212,0.0123446,-0.0205878,0.000524559,0.000124016,-0.00852112
40,7,0,0,0,0,0,0,231.8,254,0,0,0,0,0,0,0,231.8,766,0,0.000959816,0.000759735,-0.000780754,0.0165863,0.00266537,-9.38424e-06,0.00106422,0.00129513,0.00555641,0.000411835,1.03759e-05,0.0126879,-0.021427,0.000600853,0.000619926,-0.00791077
40,8,0,0,0,0,0,0,231.8,254,0,0,0,0,0,0,0,231.8,766,0,0.000463906,0.00095047,0.000668831,0.0162048,0.0028561,0.00102058,-0.000118332,-0.000383339,-0.0637948,0.000755157,0.000773315,0.0132983,-0.0202444,0.00117306,0.000391045,-0.00897888
40,9,0,0,0,0,0,0,231.8,254,0,0,0,0,0,0,0,231.8,766,0,0.000502053,0.000836029,0.000821419,0.0155563,0.0041531,0.00113502,0.00114052,0.000417748,-0.012449,0.000869598,0.000658874,0.014252,-0.0199011,0.00105862,0.000619926,-0.0081778
41,0,0,0,0,0,0,0,231.8,254,0,0,0,0,0,0,0,231.8,766,0,0.000578347,7.30893e-05,0.000211067,0.0168914,0.00506863,0.000181351,0.000301285,7.44248e-05,0.019213,0.000907745,0.000162964,0.0134127,-0.0207785,0.000639,0.00107769,-0.00871185
41,1,0,0,0,0,0,0,231.8,254,0,0,0,0,0,0,0,231.8,766,0,0.000311318,0.00018753,-0.000666313,0.0160141,0.00586971,0.000486526,7.24029e-05,7.44248e-05,0.0652946,0.000564422,0.000277405,0.011391,-0.0217322,0.000639,0.000543633,-0.00936035
41,2,0,0,0,0,0,0,231.8,254,0,0,0,0,0,0,0,231.8,766,0,0.000769082,-0.000270233,0.000363655,0.0166244,0.0107144,0.000715408,0.00117867,0.00106625,-0.0549447,0.000182953,0.00153625,0.0126117,-0.02116,0.00197414,0.00164989,-0.00833038
41,3,0,0,0,0,0,0,231.8,254,0,0,0,0,0,0,0,231.8,766,0,0.00103611,0.0011412,0.00150806,0.0162048,0.00884518,0.00227943,0.00117867,0.00125698,0.0277198,0.000373688,0.000887756,0.0116961,-0.02013,0.00147823,0.00130657,-0.0081015
41,4,0,0,0,0,0,0,231.8,254,0,0,0,0,0,0,0,231.8,766,0,0.00115055,0.00190414,0.00135548,0.0171966,0.00575527,-0.000390854,0.000453873,0.000799217,0.0577415,0.00071701,0.00126923,0.0129931,-0.0204733,0.000486412,0.00115398,-0.00779633
41,5,0,0,0,0,0,0,231.8,254,0,0,0,0,0,0,0,231.8,766,0,8.2436e-05,0.00018753,0.000401802,0.0161285,0.00445827,0.000448379,0.00011055,-0.00011631,-0.0530373,0.000259247,0.000620727,0.0100558,-0.0219229,0.00105862,0.00142101,-0.00936035
41,6,0,0,0,0,0,0,231.8,254,0,0,0,0,0,0,0,231.8,766,0,0.0005402,0.000988617,-0.000284843,0.0156707,0.00518307,0.000410232,0.000644607,-0.000345192,0.0326026,0.000488129,-0.00121033,0.00917843,-0.02116,0.000753441,-0.000295601,-0.00791077
41,7,0,0,0,0,0,0,231.8,254,0,0,0,0,0,0,0,231.8,766,0,0.000654641,-0.000384674,0.000592537,0.0162048,0.00342831,0.000410232,0.000415726,0.000989952,0.0724662,-0.000274811,0.0010022,0.00975063,-0.0208929,0.000944176,0.00126843,-0.00779633
41,8,0,0,0,0,0,0,231.8,254,0,0,0,0,0,0,0,231.8,766,0,8.2436e-05,0.000836029,0.000211067,0.0157089,0.00174984,0.00117317,0.000911636,0.0010281,-0.0558221,3.03648e-05,-0.000332947,0.0123446,-0.0206641,0.000562706,0.00058178,-0.00791077
41,9,0,0,0,0,0,0,231.8,254,0,0,0,0,0,0,0,231.8,766,0,0.000959816,0.00117935,0.00108845,0.0155563,0.00331387,0.000715408,0.000682754,0.00137142,0.0344718,0.000602569,0.000544433,0.0181811,-0.0213126,0.0012112,0.00248913,-0.00798706
42,0,0,0,0,0,0,0,231.8,254,0,0,0,0,0,0,0,231.8,766,0,0.000692788,0.00106491,-0.000399284,0.0160522,-0.00076786,0.000181351,0.000377579,0.000379601,0.079943,3.03648e-05,-0.000981445,0.0153582,-0.0200537,-0.000123939,-2.8572e-05,-0.00783447
42,1,0,0,0,0,0,0,231.8,254,0,0,0,0,0,0,0,231.8,766,0,0.000120583,7.30893e-05,-0.000170403,0.0159759,-0.00126377,0.000105057,0.00060646,0.00026516,-0.0628411,-0.000847016,0.000391846,0.011925,-0.02116,0.000639,-2.8572e-05,-0.00871185
42,2,0,0,0,0,0,0,231.8,254,0,0,0,0,0,0,0,231.8,766,0,0.000349465,0.00129379,0.000668831,0.0166244,0.0040768,0.000639114,-0.000156479,0.00106625,-0.0307595,3.03648e-05,0.000239258,0.0171893,-0.0208167,0.000944176,0.00119213,-0.00863556
42,3,0,0,0,0,0,0,231.8,254,0,0,0,0,0,0,0,231.8,766,0,0.00015873,0.000721588,0.000516243,0.0167007,0.00323757,0.00124947,0.000682754,0.000303307,-0.00550621,0.00106033,0.000735168,0.0202029,-0.0209692,0.0018597,0.000848808,-0.00783447
42,4,0,0,0,0,0,0,231.8,254,0,0,0,0,0,0,0,231.8,766,0,0.000654641,0.00095047,0.000478096,0.01651,0.00361904,0.00136391,0.000301285,0.00125698,0.11458,0.00132736,0.00115479,0.0168078,-0.019863,0.00140194,0.00130657,-0.0081778
42,5,0,0,0,0,0,0,231.8,254,0,0,0,0,0,0,0,231.8,766,0,0.000120583,0.000607147,-1.78147e-05,0.0168914,0.00552639,0.000829849,0.00117867,0.00076107,0.19343,0.000335541,0.00046814,0.00917843,-0.0206641,0.000753441,0.000314751,-0.00890259
42,6,0,0,0,0,0,0,231.8,254,0,0,0,0,0,0,0,231.8,766,0,0.000349465,0.000454559,0.000249214,0.015213,0.00579342,-0.000161972,-0.000385361,0.000379601,0.152804,0.0002211,0.000429993,0.0128024,-0.0205115,0.00102047,0.000467339,-0.0081015
42,7,0,0,0,0,0,0,231.8,254,0,0,0,0,0,0,0,231.8,766,0,0.000196877,0.000340118,0.000211067,0.0158615,0.00442013,0.000372085,0.000759048,0.000341454,0.0978721,0.000945892,0.00119293,0.0191348,-0.0208548,-0.000123939,0.00119213,-0.00779633
42,8,0,0,0,0,0,0,231.8,254,0,0,0,0,0,0,0,231.8,766,0,0.000692788,0.000683441,0.000134773,0.0157852,0.00758633,0.000219498,0.00060646,-0.000459633,-0.084089,0.000297394,0.00126923,0.0189822,-0.0211981,0.00109676,0.00020031,-0.00882629
42,9,0,0,0,0,0,0,231.8,254,0,0,0,0,0,0,0,231.8,766,0,0.000807228,0.00137009,0.00120289,0.0164337,0.00560268,0.00170723,0.000682754,0.000532188,-0.090078,0.000793304,-0.000180359,0.0178759,-0.0197867,0.000829735,0.00134472,-0.00848297
43,0,0,0,0,0,0,0,231.8,254,0,0,0,0,0,0,0,231.8,766,0,0.000463906,0.000378265,0.000401802,0.0173492,0.00827297,0.000333939,0.00102608,0.00026516,0.0423682,0.00159439,0.0015744,0.0201648,-0.0197104,0.00178341,0.00172619,-0.00806335
43,1,0,0,0,0,0,0,231.8,254,0,0,0,0,0,0,0,231.8,766,0,0.000807228,-0.000232087,-0.000132256,0.0165863,0.0110958,0.000906143,0.00117867,7.44248e-05,-0.0503289,0.00071701,8.66698e-05,0.0192492,-0.0200537,0.00124935,0.00069622,-0.00802521
43,2,0,0,0,0,0,0,231.8,254,0,0,0,0,0,0,0,231.8,766,0,0.000273171,0.00140823,-0.000170403,0.0160141,0.00712856,0.000982437,0.000377579,0.000227013,-0.0822579,-0.000122223,1.03759e-05,0.0155108,-0.0206259,0.00147823,0.000810661,-0.007453
43,3,0,0,0,0,0,0,231.8,254,0,0,0,0,0,0,0,231.8,766,0,0.000807228,0.000797882,0.000706978,0.0162811,0.00392422,0.000906143,0.000415726,0.00114254,0.0555671,6.85118e-05,-0.000447388,0.0156634,-0.0199774,0.00155453,0.000963249,-0.00867371
43,4,0,0,0,0,0,0,231.8,254,0,0,0,0,0,0,0,231.8,766,0,0.000463906,0.000645294,0.00177509,0.017044,0.00148281,0.00170723,0.00167458,0.000722923,-0.0322472,0.000945892,0.00145996,0.0169223,-0.0200156,0.00163082,0.0015736,-0.00730042
43,5,0,0,0,0,0,0,231.8,254,0,0,0,0,0,0,0,231.8,766,0,0.000883522,0.000912323,0.000134773,0.0169296,0.00194057,0.000829849,0.000797195,0.000608482,-0.0968301,-0.000885163,0.00123108,0.0159686,-0.0200919,0.00140194,0.00115398,-0.00840668
43,6,0,0,0,0,0,0,231.8,254,0,0,0,0,0,0,0,231.8,766,0,0.000769082,0.00095047,0.00055439,0.0162048,0.00049099,0.000105057,0.000720901,0.000722923,-0.0405633,0.00109848,0.000506287,0.0131839,-0.0206259,0.00025753,0.000543633,-0.00813965
43,7,0,0,0,0,0,0,231.8,254,0,0,0,0,0,0,0,231.8,766,0,-0.000146446,0.000607147,0.000211067,0.0168914,0.00274166,0.000448379,0.000453873,7.44248e-05,-0.00161522,0.000831451,-0.000142212,0.0138705,-0.0208167,0.000600853,-0.000905952,-0.00947479
43,8,0,0,0,0,0,0,231.8,254,0,0,0,0,0,0,0,231.8,766,0,0.000692788,0.00205673,0.000668831,0.0168914,0.000796166,0.00132576,-4.2038e-05,0.000341454,0.0397361,0.000984039,0.00123108,0.0132602,-0.0212363,0.00151638,0.00176434,-0.00779633
43,9,0,0,0,0,0,0,231.8,254,0,0,0,0,0,0,0,231.8,766,0,0.000692788,0.000759735,0.000821419,0.0165863,-0.000996742,0.00124947,0.000568314,-0.000383339,-0.0709283,0.000793304,0.000887756,0.0111621,-0.0197485,0.00102047,0.000391045,-0.00836853
44,0,0,0,0,0,0,0,231.8,254,0,0,0,0,0,0,0,231.8,766,0,0.000845375,-0.000460968,0.000859566,0.0162429,0.00186428,0.000181351,0.000911636,0.00110439,0.017382,0.000373688,0.000315552,0.0095599,-0.0207404,0.000410118,0.000734367,-0.00741486
44,1,0,0,0,0,0,0,231.8,254,0,0,0,0,0,0,0,231.8,766,0,0.00015873,0.000530853,0.000592537,0.0156707,0.0016354,0.000524673,0.000720901,-0.000535927,0.0439704,0.000182953,0.00104034,0.0106662,-0.0202063,0.000677147,0.00103954,-0.0068808
44,2,0,0,0,0,0,0,231.8,254,0,0,0,0,0,0,0,231.8,766,0,0.000387612,3.49423e-05,0.00017292,0.0146408,0.00319942,0.000105057,7.24029e-05,0.000303307,-0.0599419,0.00128921,8.66698e-05,0.0120776,-0.0207785,-0.000429115,4.77219e-05,-0.00981812
44,3,0,0,0,0,0,0,231.8,254,0,0,0,0,0,0,0,231.8,766,0,0.000959816,-0.000155793,-0.00032299,0.0146789,0.0009869,-0.000200119,0.00060646,0.000379601,0.0278724,-0.00126663,-0.000256653,0.012955,-0.021427,-0.000467262,0.000314751,-0.0093222
44,4,0,0,0,0,0,0,231.8,254,0,0,0,0,0,0,0,231.8,766,0,0.000616494,0.000340118,0.00108845,0.0158233,0.00010952,0.000295792,0.000835342,-0.000192604,0.0684989,0.000297394,-0.000409241,0.0120013,-0.0210837,0.000753441,0.000467339,-0.00848297
44,5,0,0,0,0,0,0,231.8,254,0,0,0,0,0,0,0,231.8,766,0,0.000463906,0.000263824,0.000363655,0.0158615,0.00270351,0.000295792,-0.000423508,0.000379601,-0.0562417,0.000449982,0.00214661,0.00784328,-0.0218848,0.000753441,0.00149731,-0.00882629
44,6,0,0,0,0,0,0,231.8,254,0,0,0,0,0,0,0,231.8,766,0,0.000502053,0.000492706,0.000745125,0.0163192,0.00468716,0.0014402,0.00171272,0.000417748,0.0340903,0.00132736,0.00149811,0.00940731,-0.0195197,0.00144009,8.58689e-05,-0.00836853
44,7,0,0,0,0,0,0,231.8,254,0,0,0,0,0,0,0,231.8,766,0,0.000578347,0.000378265,0.00101215,0.0160141,0.00209316,0.000295792,0.000873489,0.000150719,0.0797904,-0.000122223,-0.000218506,0.0102465,-0.0204733,0.000791588,0.00058178,-0.00829224
44,8,0,0,0,0,0,0,231.8,254,0,0,0,0,0,0,0,231.8,766,0,0.000883522,0.000454559,0.000211067,0.0159759,0.00171169,0.000333939,0.000682754,0.000303307,-0.058149,0.000640716,0.000239258,0.0162738,-0.0205878,0.00144009,0.00123028,-0.00798706
44,9,0,0,0,0,0,0,231.8,254,0,0,0,0,0,0,0,231.8,766,0,0.000502053,0.000721588,0.00124104,0.0163574,0.00251278,0.00121132,0.00159828,-4.00161e-05,-0.0267922,0.000945892,8.66698e-05,0.01738,-0.0203207,0.00102047,0.00149731,-0.00901703
45,0,0,0,0,0,0,0,231.8,254,0,0,0,0,0,0,0,231.8,766,0,0.00122685,0.00152267,0.000211067,0.015747,-0.00027195,0.000906143,0.000720901,-1.86916e-06,-0.00375145,0.000297394,-6.59181e-05,0.0145572,-0.0199774,0.000867882,0.00103954,-0.00836853
45,1,0,0,0,0,0,0,231.8,254,0,0,0,0,0,0,0,231.8,766,0,0.00107426,0.0012175,0.00162251,0.017044,-0.00103489,0.000219498,0.00159828,0.00076107,0.0665534,0.00140366,0.00134552,0.0113147,-0.0203207,0.00117306,0.000810661,-0.0081015
45,2,0,0,0,0,0,0,231.8,254,0,0,0,0,0,0,0,231.8,766,0,0.000387612,0.000759735,0.00139362,0.0171203,0.00251278,0.00178352,0.000301285,0.000532188,0.00193245,0.00113663,0.000735168,0.014519,-0.0203207,0.000829735,0.00107769,-0.00764374
45,3,0,0,0,0,0,0,231.8,254,0,0,0,0,0,0,0,231.8,766,0,-0.000184593,-0.00126205,-5.59617e-05,0.0161285,0.000796166,0.000257645,-4.2038e-05,0.000150719,-0.0292718,-0.00054184,0.000849609,0.0183337,-0.0203589,0.00113491,0.00130657,-0.00844482
45,4,0,0,0,0,0,0,231.8,254,0,0,0,0,0,0,0,231.8,766,0,8.2436e-05,-0.000346527,0.00116474,0.0148315,0.00384792,0.000486526,0.00098793,-0.000307045,0.0758994,0.000907745,4.85228e-05,0.0151294,-0.0200537,0.000486412,0.00103954,-0.0075293
45,5,0,0,0,0,0,0,231.8,254,0,0,0,0,0,0,0,231.8,766,0,-0.000527916,-3.20468e-06,-0.000475578,0.0155182,0.007243,0.000219498,-4.2038e-05,0.000379601,0.0006736,-0.000389252,-0.000523682,0.0115817,-0.0216177,-0.000200233,0.000314751,-0.00844482
45,6,0,0,0,0,0,0,231.8,254,0,0,0,0,0,0,0,231.8,766,0,0.00153202,0.000797882,0.000516243,0.0168151,0.00850185,0.000181351,-0.000576096,-0.000154457,-0.0258385,0.000755157,0.000773315,0.0123828,-0.0209311,0.000906029,0.000429192,-0.00676636
45,7,0,0,0,0,0,0,231.8,254,0,0,0,0,0,0,0,231.8,766,0,0.000273171,0.00117935,0.00135548,0.0164337,0.007243,0.00151649,0.00098793,0.000303307,0.0918449,0.00170883,-2.77711e-05,0.0132602,-0.020397,0.000448265,0.000505486,-0.00718597
45,8,0,0,0,0,0,0,231.8,254,0,0,0,0,0,0,0,231.8,766,0,0.000997963,0.000759735,0.00101215,0.0162048,0.00583157,0.000486526,0.000759048,0.000608482,0.00559456,0.000144806,0.00145996,0.0145953,-0.0208167,0.000639,0.00111584,-0.00901703
45,9,0,0,0,0,0,0,231.8,254,0,0,0,0,0,0,0,231.8,766,0,0.00015873,-0.000117646,0.000211067,0.0158233,0.00804409,0.00094429,0.000415726,0.000646629,-0.0292336,0.000526275,-0.000409241,0.0120776,-0.0202063,0.000791588,0.000162163,-0.00741486
46,0,0,0,0,0,0,0,231.8,254,0,0,0,0,0,0,0,231.8,766,0,0.000273171,0.000797882,0.000325508,0.0159378,0.00758633,0.000486526,0.000301285,0.000188866,0.0947822,0.0002211,1.03759e-05,0.0141375,-0.0217703,0.000448265,0.00111584,-0.00943665
46,1,0,0,0,0,0,0,231.8,254,0,0,0,0,0,0,0,231.8,766,0,0.00160831,0.0011412,0.00177509,0.0160904,0.00709042,0.00163094,0.000873489,0.00179104,0.00898964,0.0014418,0.000735168,0.0147097,-0.0187567,0.00182156,0.000429192,-0.00829224
46,2,0,0,0,0,0,0,231.8,254,0,0,0,0,0,0,0,231.8,766,0,0.000578347,0.000912323,0.00101215,0.0165863,0.00716671,0.000829849,0.000873489,-0.000230751,-0.0591409,0.000945892,-0.000180359,0.0194781,-0.0196341,2.86484e-05,0.000352898,-0.00756744
46,3,0,0,0,0,0,0,231.8,254,0,0,0,0,0,0,0,231.8,766,0,0.000692788,0.000836029,0.000668831,0.0157852,0.00781521,0.000295792,0.000759048,0.000951805,-0.00771873,0.00113663,0.00046814,0.0186007,-0.0205115,0.0012875,0.00172619,-0.00802521
46,4,0,0,0,0,0,0,231.8,254,0,0,0,0,0,0,0,231.8,766,0,-0.000184593,0.000225677,0.000630684,0.0154037,0.00609859,0.00105873,0.00110237,-0.000459633,0.0267661,0.00205215,0.000620727,0.0191729,-0.0203207,0.000715294,-0.00136372,-0.00806335
46,5,0,0,0,0,0,0,231.8,254,0,0,0,0,0,0,0,231.8,766,0,0.000997963,0.00102676,0.000974007,0.0163192,0.00808224,6.69097e-05,0.000759048,0.000303307,0.0638831,0.000564422,0.000315552,0.0215762,-0.0210837,0.000829735,0.000505486,-0.00947479
46,6,0,0,0,0,0,0,231.8,254,0,0,0,0,0,0,0,231.8,766,0,0.000997963,0.000263824,2.03323e-05,0.0158615,0.00621304,0.000639114,0.000415726,0.00125698,-0.0504052,0.00193771,0.000239258,0.0172274,-0.0205878,0.000753441,0.00199322,-0.00756744
46,7,0,0,0,0,0,0,231.8,254,0,0,0,0,0,0,0,231.8,766,0,0.000235024,0.00152267,0.00101215,0.0160904,0.0073193,0.00102058,0.00117867,0.000150719,0.0321449,0.000755157,-0.000332947,0.0145572,-0.0203589,0.000982323,0.00153545,-0.00730042
46,8,0,0,0,0,0,0,231.8,254,0,0,0,0,0,0,0,231.8,766,0,0.00122685,0.00018753,0.000783272,0.0163955,0.00678524,0.000448379,0.000835342,0.000455895,0.0588096,0.000678863,0.00123108,0.0171893,-0.0203589,0.00155453,0.00020031,-0.00737671
46,9,0,0,0,0,0,0,231.8,254,0,0,0,0,0,0,0,231.8,766,0,0.000502053,-0.000232087,0.000211067,0.0155182,0.00510677,-0.000123825,0.00106422,-1.86916e-06,-0.0486123,-0.000579987,-0.000256653,0.015549,-0.021427,0.000524559,-0.000295601,-0.00909332
47,0,0,0,0,0,0,0,231.8,254,0,0,0,0,0,0,0,231.8,766,0,-0.000299034,0.000874176,0.000592537,0.0143356,0.0053738,0.00109688,0.000682754,-1.86916e-06,0.0363029,0.000564422,-0.00067627,0.0116198,-0.0209692,0.000486412,0.000963249,-0.00825409
47,1,0,0,0,0,0,0,231.8,254,0,0,0,0,0,0,0,231.8,766,0,0.000616494,0.00018753,-0.000170403,0.0162429,0.00567898,0.000867996,0.000949783,0.000608482,0.0738013,0.00147995,0.000353699,0.0161975,-0.02013,0.00136379,0.00123028,-0.00760559
47,2,0,0,0,0,0,0,231.8,254,0,0,0,0,0,0,0,231.8,766,0,0.000692788,0.00163712,0.000706978,0.0158233,0.00579342,0.000257645,0.000301285,0.000455895,-0.0533044,0.000411835,0.000811462,0.0162356,-0.0218085,0.000448265,0.000886955,-0.00913147
47,3,0,0,0,0,0,0,231.8,254,0,0,0,0,0,0,0,231.8,766,0,-0.000146446,0.0011412,0.000478096,0.0153656,0.00697597,0.00056282,7.24029e-05,0.000989952,0.0361121,-0.000579987,0.000735168,0.0175326,-0.0209692,-0.000390968,0.00119213,-0.00947479
47,4,0,0,0,0,0,0,231.8,254,0,0,0,0,0,0,0,231.8,766,0,0.000235024,0.000721588,0.000668831,0.0160522,0.00754818,0.000410232,-0.000537949,0.000112572,0.0813926,0.00132736,-0.000180359,0.0157397,-0.02116,-4.76455e-05,-0.000715218,-0.00741486
47,5,0,0,0,0,0,0,231.8,254,0,0,0,0,0,0,0,231.8,766,0,0.00153202,0.000988617,0.00143177,0.0163574,0.00861629,0.00094429,0.000720901,0.00129513,-0.0603616,0.00163254,0.00115479,0.0148242,-0.0212363,0.000600853,0.000925102,-0.00848297
47,6,0,0,0,0,0,0,231.8,254,0,0,0,0,0,0,0,231.8,766,0,0.000997963,0.000149383,2.03323e-05,0.0159378,0.00529751,0.000524673,0.00117867,0.000684776,-0.0299966,0.000106659,0.000620727,0.0148623,-0.0210455,0.000639,-0.000371895,-0.00913147
47,7,0,0,0,0,0,0,231.8,254,0,0,0,0,0,0,0,231.8,766,0,-0.000299034,0.0012175,0.000592537,0.0160904,0.00377163,0.00105873,0.00171272,0.000684776,-0.00649803,0.00071701,-0.00117218,0.0157016,-0.0208167,0.000791588,0.00119213,-0.00665192
47,8,0,0,0,0,0,0,231.8,254,0,0,0,0,0,0,0,231.8,766,0,0.000921669,0.000378265,0.000859566,0.0157852,0.00270351,0.000410232,-3.89107e-06,0.000570335,0.0662482,0.00117477,0.00115479,0.0139087,-0.0215033,0.00105862,0.000925102,-0.00890259
47,9,0,0,0,0,0,0,231.8,254,0,0,0,0,0,0,0,231.8,766,0,0.000425759,0.000149383,0.000478096,0.0155944,0.00308498,0.000524673,3.42559e-05,0.00026516,-5.11929e-05,0.000373688,0.000735168,0.0143664,-0.0216559,0.000639,-0.000104866,-0.00871185
48,0,0,0,0,0,0,0,231.8,254,0,0,0,0,0,0,0,231.8,766,0,0.00115055,0.00137009,0.00124104,0.0157089,0.000872459,0.00147835,0.00060646,0.00137142,-0.0357186,0.000831451,0.000849609,0.0147479,-0.02013,0.000867882,0.00107769,-0.0081015
48,1,0,0,0,0,0,0,231.8,254,0,0,0,0,0,0,0,231.8,766,0,0.0011124,0.00110306,0.000211067,0.0171203,0.000758019,0.00102058,0.00106422,0.000684776,0.072924,0.00106033,0.00046814,0.0147479,-0.0202826,0.00170712,0.000925102,-0.00813965
48,2,0,0,0,0,0,0,231.8,254,0,0,0,0,0,0,0,231.8,766,0,0.000502053,3.49423e-05,0.00120289,0.0167389,0.000872459,0.00124947,0.00114052,0.00118069,-0.00665062,0.00193771,0.000620727,0.0157397,-0.0195959,0.00189785,0.00176434,-0.00775818
48,3,0,0,0,0,0,0,231.8,254,0,0,0,0,0,0,0,231.8,766,0,0.000921669,-7.94986e-05,5.84793e-05,0.0164337,-4.92088e-06,0.000410232,0.000911636,0.000455895,-0.0341927,0.000640716,0.000697021,0.0152056,-0.0219992,0.000944176,-0.000143013,-0.00943665
48,4,0,0,0,0,0,0,231.8,254,0,0,0,0,0,0,0,231.8,766,0,0.000387612,0.000301971,0.000821419,0.0151748,-0.00225559,0.000486526,0.00110237,0.000150719,0.0857795,0.000945892,-0.000218506,0.0124972,-0.0202826,0.000791588,0.00069622,-0.00787262
48,5,0,0,0,0,0,0,231.8,254,0,0,0,0,0,0,0,231.8,766,0,-0.000451622,0.000759735,0.000516243,0.015213,-0.00286594,0.000677261,0.000682754,0.00026516,-5.11929e-05,0.00167068,0.000201111,0.0122302,-0.0208929,0.00151638,0.00145916,-0.00890259
48,6,0,0,0,0,0,0,231.8,254,0,0,0,0,0,0,0,231.8,766,0,0.000235024,7.30893e-05,0.000401802,0.0168914,-0.00164524,0.000410232,0.00133125,0.000570335,-0.0362527,3.03648e-05,0.000620727,0.012192,-0.0205115,0.000906029,0.00210766,-0.00829224
48,7,0,0,0,0,0,0,231.8,254,0,0,0,0,0,0,0,231.8,766,0,0.000654641,0.000874176,9.66262e-05,0.0153656,-0.00206486,0.000600967,-0.000194626,-0.000268898,0.0903953,0.000488129,0.000315552,0.011658,-0.0205496,2.86484e-05,0.000734367,-0.00802521
48,8,0,0,0,0,0,0,231.8,254,0,0,0,0,0,0,0,231.8,766,0,0.000273171,0.000454559,9.66262e-05,0.0157089,-0.00301853,-9.38424e-06,0.000682754,0.000570335,0.00368721,0.000373688,0.000735168,0.0118106,-0.0209311,0.000677147,-0.000257454,-0.00875
48,9,0,0,0,0,0,0,231.8,254,0,0,0,0,0,0,0,231.8,766,0,-3.20049e-05,-3.20468e-06,0.00108845,0.0172729,-0.00252262,0.000448379,0.000415726,0.000341454,-0.0660073,0.00231918,0.000315552,0.0126879,-0.02013,0.000829735,0.000848808,-0.00947479
49,0,0,0,0,0,0,0,231.8,254,0,0,0,0,0,0,0,231.8,766,0,0.00115055,0.000492706,0.000478096,0.0164718,0.000414696,0.00132576,-0.000232773,0.00129513,-0.0142419,-0.000312958,-0.000409241,0.0128024,-0.0214651,0.00132565,0.00134472,-0.00779633
49,1,0,0,0,0,0,0,231.8,254,0,0,0,0,0,0,0,231.8,766,0,-0.000146446,0.000797882,0.000249214,0.0162048,-0.000195656,-0.000161972,0.00110237,0.000913658,0.0190604,0.00121292,0.00046814,0.00982693,-0.0212744,0.00113491,0.000734367,-0.00894073
49,2,0,0,0,0,0,0,231.8,254,0,0,0,0,0,0,0,231.8,766,0,0.000769082,0.00106491,0.00093586,0.0164337,-0.00198856,0.00117317,0.00114052,0.0010281,0.0655616,0.000793304,-0.000332947,0.00997951,-0.0199011,0.00136379,0.000848808,-0.00909332
49,3,0,0,0,0,0,0,231.8,254,0,0,0,0,0,0,0,231.8,766,0,6.14207e-06,0.000111236,9.66262e-05,0.0150985,-0.000729713,-4.75312e-05,0.000568314,0.000227013,-0.0577294,0.000984039,0.00046814,0.00772884,-0.0220374,0.00102047,0.00115398,-0.00890259
49,4,0,0,0,0,0,0,231.8,254,0,0,0,0,0,0,0,231.8,766,0,0.000654641,0.000301971,0.00017292,0.0158996,0.00140652,0.000982437,-0.000194626,0.00026516,0.0262702,0.00117477,0.000124817,0.00894955,-0.0215796,-0.000581703,-0.000791511,-0.00787262
49,5,0,0,0,0,0,0,231.8,254,0,0,0,0,0,0,0,231.8,766,0,0.000463906,0.00110306,0.000745125,0.0163192,0.00262722,0.000867996,0.00060646,0.00106625,0.0567115,0.000945892,0.000849609,0.0172274,-0.0209692,0.000867882,0.000886955,-0.00791077
49,6,0,0,0,0,0,0,231.8,254,0,0,0,0,0,0,0,231.8,766,0,0.000692788,0.000797882,0.00124104,0.016777,0.00323757,0.00124947,0.00129311,0.00152401,-0.0538766,0.00193771,0.000620727,0.0204318,-0.0197104,0.00178341,0.00252728,-0.00833038
49,7,0,0,0,0,0,0,231.8,254,0,0,0,0,0,0,0,231.8,766,0,0.000463906,3.49423e-05,0.000439949,0.0169296,0.00312313,0.00056282,0.00156013,0.000188866,0.0326789,0.00128921,0.000353699,0.0210421,-0.0202444,-9.49856e-06,0.000467339,-0.00772003
49,8,0,0,0,0,0,0,231.8,254,0,0,0,0,0,0,0,231.8,766,0,0.000502053,0.000988617,0.000249214,0.01548,0.000872459,0.000600967,0.00049202,0.000303307,0.0720847,6.85118e-05,0.000315552,0.0192492,-0.0224951,0.000639,0.000925102,-0.00947479
49,9,0,0,0,0,0,0,231.8,254,0,0,0,0,0,0,0,231.8,766,0,0.000616494,0.000683441,0.00127918,0.0171203,0.00209316,0.00105873,0.000682754,0.00076107,-0.0560128,0.00186142,0.000658874,0.01841,-0.0193671,0.000715294,0.000238457,-0.0081778
50,0,0,0,0,0,0,0,231.8,254,0,0,0,0,0,0,0,231.8,766,0,-0.000146446,0.0011412,0.000783272,0.0166244,0.00571712,0.00109688,0.00114052,0.000455895,0.0335944,0.00125107,0.00107849,0.0145953,-0.0211218,0.000944176,0.000543633,-0.0081778
50,1,0,0,0,0,0,0,231.8,254,0,0,0,0,0,0,0,231.8,766,0,0.000578347,0.000607147,0.00127918,0.017044,0.00644192,0.0014402,0.00144569,0.000989952,0.0794471,0.000831451,0.00119293,0.0135653,-0.0209692,0.00144009,0.0015736,-0.00859741
50,2,0,0,0,0,0,0,231.8,254,0,0,0,0,0,0,0,231.8,766,0,0.0005402,3.49423e-05,0.000478096,0.0161666,0.00686153,0.000715408,0.000377579,0.000303307,-0.0645959,3.03648e-05,0.000735168,0.0139849,-0.0208929,0.000639,0.000505486,-0.00936035
50,3,0,0,0,0,0,0,231.8,254,0,0,0,0,0,0,0,231.8,766,0,0.000273171,0.000912323,0.000783272,0.0163192,0.00693783,0.000486526,0.000453873,0.0016766,-0.0308739,0.000449982,0.000124817,0.0126498,-0.0212744,0.000295677,0.00130657,-0.00920776
50,4,0,0,0,0,0,0,231.8,254,0,0,0,0,0,0,0,231.8,766,0,-0.000375328,-3.20468e-06,-9.41086e-05,0.0157852,0.00770077,0.000410232,-0.000232773,0.000227013,-0.00569694,0.00113663,0.000391846,0.010895,-0.0215414,0.000486412,0.00203136,-0.00836853
50,5,0,0,0,0,0,0,231.8,254,0,0,0,0,0,0,0,231.8,766,0,0.000349465,0.000683441,0.000211067,0.0163955,0.00956997,0.000105057,0.00011055,-0.00011631,0.115916,0.0002211,-0.000218506,0.0147097,-0.0206259,0.00102047,0.000543633,-0.00821594
50,6,0,0,0,0,0,0,231.8,254,0,0,0,0,0,0,0,231.8,766,0,0.00122685,0.000759735,0.00017292,0.0163192,0.00701412,0.00056282,0.00117867,0.000608482,0.195109,0.000755157,0.000849609,0.0121539,-0.0212744,0.00147823,0.000619926,-0.00901703
50,7,0,0,0,0,0,0,231.8,254,0,0,0,0,0,0,0,231.8,766,0,0.000196877,0.00129379,0.00162251,0.0168533,0.0103711,0.00121132,0.000377579,0.000570335,0.156695,0.00117477,0.00134552,0.0126498,-0.0199011,0.00216488,4.77219e-05,-0.00768188
50,8,0,0,0,0,0,0,231.8,254,0,0,0,0,0,0,0,231.8,766,0,0.000502053,0.000721588,0.000821419,0.01651,0.00792965,0.000829849,0.00129311,0.00140957,0.102946,0.00128921,0.000697021,0.0161593,-0.0208929,0.000600853,0.00187878,-0.00684265
50,9,0,0,0,0,0,0,231.8,254,0,0,0,0,0,0,0,231.8,766,0,0.000921669,0.000607147,0.000668831,0.0161666,0.00739559,0.00102058,0.000453873,0.00114254,-0.0924813,0.00121292,0.000201111,0.014786,-0.0211981,0.000448265,0.000848808,-0.0081015
51,0,0,0,0,0,0,0,231.8,254,0,0,0,0,0,0,0,231.8,766,0,0.000311318,0.000683441,0.000516243,0.0149841,0.00564083,0.000257645,-0.000423508,0.00026516,-0.0895058,0.00132736,0.000620727,0.0149768,-0.021427,0.000143089,0.00115398,-0.00951294
51,1,0,0,0,0,0,0,231.8,254,0,0,0,0,0,0,0,231.8,766,0,-3.20049e-05,-0.000613556,-0.000399284,0.0157852,0.00461086,0.000181351,-0.000194626,0.000227013,0.0416434,0.000373688,-0.000828858,0.0143283,-0.0226859,0.000181236,0.00123028,-0.00798706
51,2,0,0,0,0,0,0,231.8,254,0,0,0,0,0,0,0,231.8,766,0,0.000997963,0.000530853,0.00093586,0.0169677,0.00396236,0.00102058,0.000339432,0.000303307,-0.0506341,0.00178513,0.00096405,0.0156253,-0.0204733,0.000906029,-2.8572e-05,-0.00813965
51,3,0,0,0,0,0,0,231.8,254,0,0,0,0,0,0,0,231.8,766,0,0.000463906,0.00137009,0.000706978,0.0161285,0.00197872,0.000906143,0.000911636,0.000188866,-0.0834023,0.00125107,0.00104034,0.0124209,-0.0212363,0.0012112,0.00115398,-0.00863556
51,4,0,0,0,0,0,0,231.8,254,0,0,0,0,0,0,0,231.8,766,0,0.00103611,0.000645294,0.000897713,0.0168151,0.00312313,0.000791702,0.000759048,0.00106625,0.055033,0.000564422,0.000887756,0.012192,-0.0203589,0.000677147,0.00145916,-0.00722412
51,5,0,0,0,0,0,0,231.8,254,0,0,0,0,0,0,0,231.8,766,0,-0.000260887,0.000378265,0.000859566,0.0168151,0.00262722,0.000600967,0.000720901,0.000303307,-0.0321709,0.00106033,0.000887756,0.0147479,-0.0207785,0.000562706,0.00145916,-0.00913147
51,6,0,0,0,0,0,0,231.8,254,0,0,0,0,0,0,0,231.8,766,0,0.000692788,0.000645294,0.00055439,0.0164337,0.0016354,0.000753555,0.00140755,0.000112572,-0.09786,0.000755157,0.000811462,0.0153201,-0.02013,0.000677147,0.00184063,-0.00905518
51,7,0,0,0,0,0,0,231.8,254,0,0,0,0,0,0,0,231.8,766,0,0.00122685,0.00144638,0.00162251,0.0164337,0.00369534,0.000867996,0.00060646,-0.00011631,-0.0400674,0.000793304,0.00134552,0.0171511,-0.0197104,0.0012112,0.000848808,-0.00783447
