Devices
1000
,,North - Force,,,North - Moment,,,North - CoP,,,South - Force,,,South - Moment,,,South - CoP,,,EMG - Voltage,,,,,,,,,,,,,,,,
Frame,Sub Frame,Fx,Fy,Fz,Mx,My,Mz,Cx,Cy,Cz,Fx,Fy,Fz,Mx,My,Mz,Cx,Cy,Cz,1,2,3,TA,5,Sol,7,8,VL,RF,BF,GlutMed,GlutMax,14,MedGast,16
,,N,N,N,N.mm,N.mm,N.mm,mm,mm,mm,N,N,N,N.mm,N.mm,N.mm,mm,mm,mm,V,V,V,V,V,V,V,V,V,V,V,V,V,V,V,V
1,0,0,0,0,0,0,0,231.8,254,0,0,0,0,0,0,0,231.8,766,0,0.000425759,0.000874176,0.000897713,0.0163955,0.00586971,0.000715408,0.000873489,-0.000459633,-0.0370538,0.00071701,0.00096405,0.0171893,-0.0203589,0.00132565,0.000276604,-0.00962738
1,1,0,0,0,0,0,0,231.8,254,0,0,0,0,0,0,0,231.8,766,0,0.000235024,0.000683441,-1.78147e-05,0.0156707,0.00945553,0.00109688,0.00114052,0.000150719,-0.00596397,-0.000389252,0.000735168,0.0205081,-0.0208548,0.000486412,0.00226025,-0.00848297
1,2,0,0,0,0,0,0,231.8,254,0,0,0,0,0,0,0,231.8,766,0,0.00107426,0.000912323,0.000592537,0.0155563,0.0130413,0.00132576,0.00114052,0.000455895,0.0898994,0.00102219,-0.000409241,0.01738,-0.0202063,0.00025753,0.000429192,-0.00970367
1,3,0,0,0,0,0,0,231.8,254,0,0,0,0,0,0,0,231.8,766,0,0.00141758,0.0011412,0.00101215,0.0164337,0.0125836,0.000333939,0.00159828,0.000913658,-0.0128304,0.000945892,0.000277405,0.011925,-0.0206259,0.000791588,0.000925102,-0.00844482
1,4,0,0,0,0,0,0,231.8,254,0,0,0,0,0,0,0,231.8,766,0,0.00015873,0.000225677,0.000287361,0.0155944,0.0107525,-0.000123825,0.000415726,-0.000574074,-0.0387704,0.000945892,-0.000218506,0.0126498,-0.0210837,0.000410118,0.000543633,-0.00894073
1,5,0,0,0,0,0,0,231.8,254,0,0,0,0,0,0,0,231.8,766,0,0.0011887,0.000263824,0.00108845,0.0168914,0.011134,0.00124947,0.000835342,0.000837364,0.101229,0.00117477,0.0016507,0.0128787,-0.0207785,0.000639,0.000848808,-0.00848297
1,6,0,0,0,0,0,0,231.8,254,0,0,0,0,0,0,0,231.8,766,0,-0.00022274,0.000797882,0.00093586,0.0163955,0.0101803,0.00109688,0.000911636,-0.000192604,-0.0134789,0.000945892,0.000162964,0.012955,-0.0186804,0.0012875,0.00142101,-0.00890259
1,7,0,0,0,0,0,0,231.8,254,0,0,0,0,0,0,0,231.8,766,0,0.000387612,-0.000232087,0.000668831,0.0154419,0.0120114,-0.000390854,0.000263138,7.44248e-05,-0.0380456,0.000335541,0.000162964,0.012955,-0.0215033,0.000371971,0.00130657,-0.00802521
1,8,0,0,0,0,0,0,231.8,254,0,0,0,0,0,0,0,231.8,766,0,0.00126499,0.000759735,0.000706978,0.0156326,0.0105236,0.00140205,0.000949783,0.000532188,0.115382,0.00132736,0.0010022,0.00898769,-0.0211218,0.000867882,8.58689e-05,-0.00840668
1,9,0,0,0,0,0,0,231.8,254,0,0,0,0,0,0,0,231.8,766,0,0.0005402,0.000683441,0.000859566,0.0163955,0.00792965,0.000448379,0.00156013,0.00076107,-0.00768059,0.00125107,0.000849609,0.00967434,-0.0205496,0.000867882,0.000886955,-0.00951294
2,0,0,0,0,0,0,0,231.8,254,0,0,0,0,0,0,0,231.8,766,0,0.000921669,0.000683441,0.000363655,0.0161285,0.00663265,0.000791702,-4.2038e-05,0.000913658,-0.0391137,0.000564422,0.000887756,0.0105899,-0.0201682,0.000715294,0.000810661,-0.00852112
2,1,0,0,0,0,0,0,231.8,254,0,0,0,0,0,0,0,231.8,766,0,0.000387612,0.00137009,0.00135548,0.0165481,0.00766262,0.000829849,0.000720901,0.000227013,0.118052,0.00186142,0.000124817,0.0105517,-0.0204733,0.000295677,0.000429192,-0.00829224
2,2,0,0,0,0,0,0,231.8,254,0,0,0,0,0,0,0,231.8,766,0,0.000387612,0.000301971,0.000745125,0.0154037,0.00846371,0.000448379,-3.89107e-06,-1.86916e-06,-0.00264519,0.000449982,0.000544433,0.0107806,-0.0205878,0.000410118,0.00058178,-0.00844482
2,3,0,0,0,0,0,0,231.8,254,0,0,0,0,0,0,0,231.8,766,0,0.000845375,0.000263824,-0.00104778,0.0169677,0.00663265,0.000410232,0.00060646,0.000417748,-0.0793969,-0.000274811,0.000315552,0.0137179,-0.0206641,0.000600853,9.57493e-06,-0.00871185
2,4,0,0,0,0,0,0,231.8,254,0,0,0,0,0,0,0,231.8,766,0,0.000311318,0.00137009,0.00101215,0.0160904,0.0091885,0.000715408,0.000453873,0.000455895,-0.0140511,-0.000122223,0.00046814,0.0156634,-0.0201682,0.000715294,0.00145916,-0.00791077
2,5,0,0,0,0,0,0,231.8,254,0,0,0,0,0,0,0,231.8,766,0,0.000807228,0.000225677,0.00116474,0.0158615,0.00815853,0.000677261,0.000759048,-1.86916e-06,0.0354255,0.000297394,8.66698e-05,0.0153201,-0.0200537,0.00105862,0.00069622,-0.00878815
2,6,0,0,0,0,0,0,231.8,254,0,0,0,0,0,0,0,231.8,766,0,0.000692788,0.000225677,0.000974007,0.0159378,0.00728115,0.000105057,0.0013694,-4.00161e-05,0.0752509,0.000831451,4.85228e-05,0.0184481,-0.0219229,6.67954e-05,0.000505486,-0.00852112
2,7,0,0,0,0,0,0,231.8,254,0,0,0,0,0,0,0,231.8,766,0,0.00157017,0.00110306,0.00112659,0.0171585,0.00857815,-0.000238266,0.000682754,0.00129513,-0.0729119,0.000793304,0.00126923,0.0189059,-0.0200156,0.00124935,0.000734367,-0.00916962
2,8,0,0,0,0,0,0,231.8,254,0,0,0,0,0,0,0,231.8,766,0,0.000273171,0.000225677,0.000821419,0.016777,0.0079678,0.000867996,0.0013694,-0.000726662,0.0453437,0.00201401,0.000811462,0.0137561,-0.0194434,0.00163082,0.000734367,-0.00836853
2,9,0,0,0,0,0,0,231.8,254,0,0,0,0,0,0,0,231.8,766,0,0.000997963,-0.000155793,0.000706978,0.0164337,0.00503048,0.000906143,0.000530167,0.000722923,0.0723136,-0.000198517,0.000277405,0.0185244,-0.0218466,-0.000429115,0.000162163,-0.00882629
3,0,0,0,0,0,0,0,231.8,254,0,0,0,0,0,0,0,231.8,766,0,0.0011887,0.00148453,0.000439949,0.0165481,0.00487789,0.00159279,0.0013694,0.000684776,-0.0689446,0.0015181,0.000811462,0.0211184,-0.02013,0.00182156,0.00107769,-0.00920776
3,1,0,0,0,0,0,0,231.8,254,0,0,0,0,0,0,0,231.8,766,0,0.000387612,-3.20468e-06,0.000363655,0.015213,0.00148281,-0.000352707,0.000873489,0.000608482,0.0504173,0.000869598,-0.000256653,0.0193637,-0.0218848,-9.49856e-06,8.58689e-05,-0.00806335
3,2,0,0,0,0,0,0,231.8,254,0,0,0,0,0,0,0,231.8,766,0,0.000502053,0.00110306,0.00055439,0.0158996,-0.0034,0.000715408,0.000339432,-0.000154457,0.087992,0.000602569,0.00046814,0.0179904,-0.0210074,0.000219383,0.00103954,-0.00821594
3,3,0,0,0,0,0,0,231.8,254,0,0,0,0,0,0,0,231.8,766,0,0.00107426,0.000759735,0.00143177,0.016777,-0.00336185,0.000906143,0.0013694,0.000417748,-0.0719201,0.00136551,0.000544433,0.0161212,-0.0210455,0.00163082,-0.00113483,-0.00867371
3,4,0,0,0,0,0,0,231.8,254,0,0,0,0,0,0,0,231.8,766,0,0.000921669,0.00144638,0.000821419,0.0167007,-0.00256077,0.000715408,7.24029e-05,0.0016766,0.0518287,0.00117477,0.000353699,0.0157016,-0.020397,0.000562706,0.00020031,-0.00974182
3,5,0,0,0,0,0,0,231.8,254,0,0,0,0,0,0,0,231.8,766,0,-3.20049e-05,0.000301971,0.000211067,0.0165481,-0.00244633,0.000448379,0.000835342,7.44248e-05,0.0951255,-0.000351105,-0.000371094,0.0177996,-0.0217322,0.00025753,0.000276604,-0.0081015
3,6,0,0,0,0,0,0,231.8,254,0,0,0,0,0,0,0,231.8,766,0,0.00149387,0.00137009,0.000134773,0.01651,-0.000691566,0.00132576,0.000911636,0.000951805,-0.081495,0.000564422,8.66698e-05,0.0171511,-0.0215414,0.000448265,0.000810661,-0.00833038
3,7,0,0,0,0,0,0,231.8,254,0,0,0,0,0,0,0,231.8,766,0,0.000349465,0.000759735,0.000325508,0.0160522,-0.00175968,-9.38424e-06,0.000720901,0.0010281,-0.0356423,0.00102219,0.00119293,0.0122683,-0.0215033,0.000715294,0.00115398,-0.00928406
3,8,0,0,0,0,0,0,231.8,254,0,0,0,0,0,0,0,231.8,766,0,0.000502053,0.000454559,0.000859566,0.0168151,-0.00122562,0.000524673,0.00129311,0.000188866,-0.00584953,0.00125107,0.000391846,0.010628,-0.0215796,0.00102047,0.000543633,-0.00783447
3,9,0,0,0,0,0,0,231.8,254,0,0,0,0,0,0,0,231.8,766,0,0.000387612,-0.000270233,0.000134773,0.0161285,-0.000577125,0.000333939,-0.000537949,0.000112572,0.089022,0.000831451,0.000925903,0.00971249,-0.0216177,-0.000467262,0.000543633,-0.00840668
4,0,0,0,0,0,0,0,231.8,254,0,0,0,0,0,0,0,231.8,766,0,0.00107426,0.00129379,0.000745125,0.0163192,-0.000195656,0.000829849,0.00114052,-0.00011631,-0.0127923,0.00136551,0.0010022,0.0103228,-0.0197485,0.00243191,0.000619926,-0.00974182
4,1,0,0,0,0,0,0,231.8,254,0,0,0,0,0,0,0,231.8,766,0,0.000807228,0.00095047,0.0010503,0.0173111,0.000948753,0.00113502,0.0025901,0.00144772,-0.0368249,0.000297394,0.000773315,0.00967434,-0.0202063,0.00109676,0.00149731,-0.00848297
4,2,0,0,0,0,0,0,231.8,254,0,0,0,0,0,0,0,231.8,766,0,0.000616494,0.000225677,0.00017292,0.0162429,0.00155911,0.000524673,-0.000118332,-0.000383339,0.100886,0.000144806,0.000391846,0.00822475,-0.0205115,0.000181236,8.58689e-05,-0.00852112
4,3,0,0,0,0,0,0,231.8,254,0,0,0,0,0,0,0,231.8,766,0,0.00015873,0.000263824,0.00055439,0.0153274,0.00270351,-4.75312e-05,0.000224991,-0.000459633,-0.0143945,0.000526275,0.0010022,0.00990322,-0.0206259,-9.49856e-06,0.000734367,-0.00985626
4,4,0,0,0,0,0,0,231.8,254,0,0,0,0,0,0,0,231.8,766,0,0.000387612,0.000645294,0.00139362,0.0164718,0.00342831,0.00147835,0.000301285,0.000455895,-0.0377404,0.00132736,1.03759e-05,0.0102084,-0.0213889,6.67954e-05,0.000162163,-0.00852112
4,5,0,0,0,0,0,0,231.8,254,0,0,0,0,0,0,0,231.8,766,0,0.000349465,0.000378265,0.00124104,0.0168533,0.00335201,0.000333939,0.00011055,0.000188866,0.113055,0.000793304,0.00104034,0.0110476,-0.020397,0.0012875,0.00161175,-0.00977997
4,6,0,0,0,0,0,0,231.8,254,0,0,0,0,0,0,0,231.8,766,0,0.000311318,3.49423e-05,-0.000170403,0.0161666,0.00243649,0.00147835,0.000720901,7.44248e-05,-0.008825,0.00109848,-0.000561829,0.0105136,-0.02116,0.000677147,0.000619926,-0.00875
4,7,0,0,0,0,0,0,231.8,254,0,0,0,0,0,0,0,231.8,766,0,0.000921669,0.00175156,-1.78147e-05,0.0161666,0.00442013,0.000791702,0.00125496,0.00152401,-0.0391518,0.000335541,0.00123108,0.0163119,-0.0215033,0.00117306,0.0010014,-0.0101233
4,8,0,0,0,0,0,0,231.8,254,0,0,0,0,0,0,0,231.8,766,0,0.000807228,0.000836029,-0.00020855,0.01651,0.00674709,0.000105057,0.000797195,0.0010281,0.116335,0.000564422,-0.000409241,0.0137942,-0.0218848,0.000639,-0.000143013,-0.00840668
4,9,0,0,0,0,0,0,231.8,254,0,0,0,0,0,0,0,231.8,766,0,0.000196877,0.000645294,0.00017292,0.0155182,0.00628933,0.000448379,-3.89107e-06,-0.000307045,-0.00226372,0.000945892,-0.000142212,0.0133746,-0.021427,0.000448265,0.000543633,-0.00821594
5,0,0,0,0,0,0,0,231.8,254,0,0,0,0,0,0,0,231.8,766,0,0.00157017,0.000874176,0.000630684,0.0171203,0.00880703,0.000143204,0.000682754,0.000417748,-0.078138,0.000106659,0.00130737,0.0136798,-0.021427,0.000486412,0.000734367,-0.00894073
5,1,0,0,0,0,0,0,231.8,254,0,0,0,0,0,0,0,231.8,766,0,-0.00022274,0.000225677,0.00127918,0.0159759,0.00987514,0.000982437,0.000186844,0.000684776,-0.0160348,0.000411835,0.000353699,0.0133746,-0.0209311,0.00109676,0.00138287,-0.00833038
5,2,0,0,0,0,0,0,231.8,254,0,0,0,0,0,0,0,231.8,766,0,0.000463906,0.000492706,0.000287361,0.0163955,0.00945553,0.000829849,0.000301285,0.000303307,0.0354636,0.000526275,-0.000142212,0.0150531,-0.02116,-8.57925e-05,0.000925102,-0.00825409
5,3,0,0,0,0,0,0,231.8,254,0,0,0,0,0,0,0,231.8,766,0,0.000921669,-0.000270233,0.000630684,0.0159378,0.00583157,-0.00031456,0.000186844,-0.000192604,0.0749458,0.00147995,0.000849609,0.0145572,-0.0218085,0.000600853,0.00020031,-0.00844482
5,4,0,0,0,0,0,0,231.8,254,0,0,0,0,0,0,0,231.8,766,0,0.000692788,0.000988617,-1.78147e-05,0.0160522,0.00956997,0.000410232,0.00049202,0.00118069,-0.0721108,0.000869598,4.85228e-05,0.014252,-0.0208167,0.00102047,-0.000486336,-0.00791077
5,5,0,0,0,0,0,0,231.8,254,0,0,0,0,0,0,0,231.8,766,0,0.00149387,0.00125565,0.0010503,0.0171966,0.0143765,0.000257645,0.0013694,0.000989952,0.0496925,0.000869598,0.0015744,0.0167697,-0.0204733,0.00132565,0.000734367,-0.00787262
5,6,0,0,0,0,0,0,231.8,254,0,0,0,0,0,0,0,231.8,766,0,0.000807228,0.000759735,0.00192768,0.016777,0.0130032,0.00132576,0.000453873,0.000455895,0.0687659,0.00113663,0.000391846,0.0168078,-0.0199774,0.000562706,0.00103954,-0.00813965
5,7,0,0,0,0,0,0,231.8,254,0,0,0,0,0,0,0,231.8,766,0,0.000311318,0.000836029,0.000287361,0.0160141,0.00987514,0.000372085,0.000568314,-7.81631e-05,-0.0690972,0.000678863,-0.000218506,0.0159304,-0.0208548,0.000143089,0.000886955,-0.00966553
5,8,0,0,0,0,0,0,231.8,254,0,0,0,0,0,0,0,231.8,766,0,0.000311318,7.30893e-05,5.84793e-05,0.0158615,0.00701412,-4.75312e-05,0.00098793,-1.86916e-06,0.049845,0.000335541,0.000239258,0.0139087,-0.0211981,0.000791588,0.000619926,-0.011077
5,9,0,0,0,0,0,0,231.8,254,0,0,0,0,0,0,0,231.8,766,0,4.4289e-05,0.000149383,0.000630684,0.0157852,0.00728115,0.000982437,-0.000537949,0.000341454,0.0876868,0.000335541,0.000506287,0.0156634,-0.0200537,0.000982323,0.000162163,-0.00836853
6,0,0,0,0,0,0,0,231.8,254,0,0,0,0,0,0,0,231.8,766,0,0.000578347,0.000530853,0.000249214,0.0157852,0.0053738,0.000486526,0.00117867,0.000494041,-0.0713097,0.00125107,0.000315552,0.0144046,-0.0212744,0.0012875,0.00145916,-0.00882629
6,1,0,0,0,0,0,0,231.8,254,0,0,0,0,0,0,0,231.8,766,0,0.00015873,0.00102676,0.000478096,0.017044,0.00491604,0.00102058,0.000949783,0.000417748,0.0512946,0.00186142,0.000658874,0.0177996,-0.0196722,0.000639,9.57493e-06,-0.00737671
6,2,0,0,0,0,0,0,231.8,254,0,0,0,0,0,0,0,231.8,766,0,4.4289e-05,0.000912323,0.000783272,0.0153656,0.00552639,-0.000429001,3.42559e-05,0.000227013,0.0953162,0.000411835,4.85228e-05,0.0179141,-0.0216559,0.000448265,-0.00018116,-0.00947479
6,3,0,0,0,0,0,0,231.8,254,0,0,0,0,0,0,0,231.8,766,0,0.000692788,0.000759735,-0.000170403,0.0158996,0.00850185,0.000257645,3.42559e-05,0.00076107,-0.0814187,0.000564422,-0.000409241,0.0181811,-0.0210837,0.000410118,0.000772514,-0.0102377
6,4,0,0,0,0,0,0,231.8,254,0,0,0,0,0,0,0,231.8,766,0,0.00103611,0.00125565,0.000897713,0.0168914,0.00636562,0.00159279,0.00102608,-0.000917397,-0.0357949,0.00102219,-0.000599976,0.0195163,-0.0205878,0.00117306,-0.000143013,-0.00821594
6,5,0,0,0,0,0,0,231.8,254,0,0,0,0,0,0,0,231.8,766,0,0.00153202,-0.000232087,-0.000132256,0.0162811,0.00689968,-9.38424e-06,0.000873489,0.00125698,-0.0172936,0.000907745,0.000697021,0.0169604,-0.020397,0.00117306,0.000352898,-0.00855927
6,6,0,0,0,0,0,0,231.8,254,0,0,0,0,0,0,0,231.8,766,0,0.000616494,0.000607147,0.000668831,0.0170822,0.00705227,0.00174538,0.00152199,0.000570335,0.0460304,0.000335541,0.000735168,0.0167697,-0.0205878,0.00189785,0.000124016,-0.00882629
6,7,0,0,0,0,0,0,231.8,254,0,0,0,0,0,0,0,231.8,766,0,0.000921669,0.000721588,0.00135548,0.016777,0.00487789,0.000486526,0.000835342,0.000837364,-0.0135934,0.000793304,-0.000447388,0.0173037,-0.0206641,0.000219383,0.00130657,-0.00798706
6,8,0,0,0,0,0,0,231.8,254,0,0,0,0,0,0,0,231.8,766,0,0.000349465,0.000683441,0.000363655,0.0165863,-0.000882301,0.000143204,0.000263138,-0.000612221,-0.0325906,0.000526275,0.000162964,0.0153201,-0.0221136,0.000486412,0.000505486,-0.0103903
6,9,0,0,0,0,0,0,231.8,254,0,0,0,0,0,0,0,231.8,766,0,0.000196877,0.00095047,0.00146992,0.0162811,-0.00248447,0.000715408,0.000720901,0.000951805,0.0597251,-4.59291e-05,0.000544433,0.0124972,-0.0203589,0.000562706,0.000314751,-0.00890259
7,0,0,0,0,0,0,0,231.8,254,0,0,0,0,0,0,0,231.8,766,0,0.00137943,0.0012175,0.000783272,0.0165863,-0.000615272,0.0014402,0.000873489,0.000913658,-0.00848167,0.00117477,0.00123108,0.0110095,-0.0193289,0.00163082,0.00176434,-0.0099707
7,1,0,0,0,0,0,0,231.8,254,0,0,0,0,0,0,0,231.8,766,0,0.0005402,0.000225677,0.000439949,0.0166626,-0.00278965,0.000257645,-8.0185e-05,0.000646629,-0.0245797,0.000755157,0.00096405,0.0137179,-0.0210074,2.86484e-05,0.000619926,-0.00783447
7,2,0,0,0,0,0,0,231.8,254,0,0,0,0,0,0,0,231.8,766,0,0.000349465,0.000569,-0.000475578,0.0150985,-0.00397221,0.000257645,0.000530167,0.000532188,0.076052,-8.40761e-05,-0.000409241,0.0141757,-0.0207022,-8.57925e-05,0.000314751,-0.00890259
7,3,0,0,0,0,0,0,231.8,254,0,0,0,0,0,0,0,231.8,766,0,0.000997963,0.000530853,0.00127918,0.0170822,-0.00385777,-8.56782e-05,0.000224991,0.000608482,-0.00253075,0.000411835,0.00058258,0.0163119,-0.0207404,0.000982323,0.000772514,-0.00794891
7,4,0,0,0,0,0,0,231.8,254,0,0,0,0,0,0,0,231.8,766,0,6.14207e-06,0.000340118,0.00055439,0.0167007,-0.00313297,0.000372085,0.000873489,0.00026516,-0.0246178,0.00147995,0.000315552,0.0189059,-0.0203207,0.000753441,0.00123028,-0.0081015
7,5,0,0,0,0,0,0,231.8,254,0,0,0,0,0,0,0,231.8,766,0,0.000959816,7.30893e-05,-0.000857048,0.0159378,0.0022076,0.000867996,0.000224991,0.00129513,0.0827277,-0.000122223,0.000697021,0.018143,-0.0200919,0.000944176,0.00187878,-0.00928406
7,6,0,0,0,0,0,0,231.8,254,0,0,0,0,0,0,0,231.8,766,0,-0.000642356,-0.000117646,0.000478096,0.0160141,0.00239834,0.00121132,0.0013694,-0.000917397,0.00349648,0.000526275,-0.00105774,0.0207751,-0.0206641,0.000791588,0.000276604,-0.00920776
7,7,0,0,0,0,0,0,231.8,254,0,0,0,0,0,0,0,231.8,766,0,0.000921669,0.00095047,0.000439949,0.0171966,0.00205502,0.000524673,0.000263138,0.000455895,-0.0494134,-0.000847016,0.00111664,0.0197451,-0.0204733,0.000600853,0.000886955,-0.00852112
7,8,0,0,0,0,0,0,231.8,254,0,0,0,0,0,0,0,231.8,766,0,0.000692788,0.000683441,5.84793e-05,0.0162429,0.00167355,0.000410232,0.00117867,0.00076107,-0.00539177,-8.40761e-05,-2.77711e-05,0.0162738,-0.020397,0.00102047,0.00115398,-0.00844482
7,9,0,0,0,0,0,0,231.8,254,0,0,0,0,0,0,0,231.8,766,0,0.000883522,0.000301971,0.000478096,0.0162811,0.00525936,0.0014402,0.000873489,0.000646629,0.0247825,-0.000389252,0.000506287,0.0156634,-0.0201682,0.000829735,0.000467339,-0.00871185
8,0,0,0,0,0,0,0,231.8,254,0,0,0,0,0,0,0,231.8,766,0,0.000502053,0.00106491,0.00158436,0.0167007,0.00770077,0.000753555,0.000568314,0.000722923,0.0522483,0.000602569,0.000887756,0.0153201,-0.0209311,0.000753441,0.000925102,-0.00894073
8,1,0,0,0,0,0,0,231.8,254,0,0,0,0,0,0,0,231.8,766,0,0.00015873,0.000225677,0.000478096,0.0158996,0.010104,0.000143204,0.000530167,0.000875511,-0.0404107,0.000984039,0.000353699,0.0108187,-0.0205878,-4.76455e-05,0.000314751,-0.00806335
8,2,0,0,0,0,0,0,231.8,254,0,0,0,0,0,0,0,231.8,766,0,-3.20049e-05,0.00106491,-0.000132256,0.0153274,0.0131939,-0.000200119,0.000415726,-0.000535927,0.0320304,3.03648e-05,-0.000714417,0.0110095,-0.0200537,0.000410118,0.00164989,-0.00962738
8,3,0,0,0,0,0,0,231.8,254,0,0,0,0,0,0,0,231.8,766,0,0.000196877,0.000645294,0.00108845,0.0156326,0.0154827,0.00105873,0.000759048,0.000227013,0.0515617,-0.00119034,0.00123108,0.0117343,-0.0203589,0.000944176,0.000886955,-0.00924591
8,4,0,0,0,0,0,0,231.8,254,0,0,0,0,0,0,0,231.8,766,0,0.000235024,0.000492706,0.00112659,0.0162811,0.0145291,0.00163094,0.00117867,0.000570335,-0.0365578,0.00159439,0.000429993,0.0107043,-0.0194052,0.00151638,0.00226025,-0.00760559
8,5,0,0,0,0,0,0,231.8,254,0,0,0,0,0,0,0,231.8,766,0,0.0011887,0.000836029,0.000211067,0.0158233,0.0162457,0.000181351,-0.000385361,0.000608482,0.0382865,-0.000999603,0.000201111,0.0119632,-0.0209692,0.000562706,0.000886955,-0.00833038
8,6,0,0,0,0,0,0,231.8,254,0,0,0,0,0,0,0,231.8,766,0,0.000692788,-0.00030838,0.00154621,0.0155563,0.0141095,-0.000352707,0.000797195,-0.000764809,0.0646461,-4.59291e-05,8.66698e-05,0.015549,-0.0210837,0.000486412,-0.000295601,-0.00905518
8,7,0,0,0,0,0,0,231.8,254,0,0,0,0,0,0,0,231.8,766,0,-3.20049e-05,0.00106491,0.000897713,0.0164337,0.0143765,0.000105057,0.000453873,0.00106625,-0.0414407,3.03648e-05,0.00096405,0.0151675,-0.0208929,-0.000581703,0.00145916,-0.00928406
8,8,0,0,0,0,0,0,231.8,254,0,0,0,0,0,0,0,231.8,766,0,0.000883522,0.000492706,0.000516243,0.0159378,0.0107907,0.000524673,0.000377579,-0.00099369,0.039965,0.0002211,0.000429993,0.0131076,-0.021427,6.67954e-05,9.57493e-06,-0.00928406
8,9,0,0,0,0,0,0,231.8,254,0,0,0,0,0,0,0,231.8,766,0,0.00141758,0.000454559,0.0010503,0.0162048,0.0104855,0.00121132,0.000759048,0.000417748,0.0715888,0.000907745,0.000925903,0.012955,-0.0200919,0.000944176,0.000429192,-0.00829224
9,0,0,0,0,0,0,0,231.8,254,0,0,0,0,0,0,0,231.8,766,0,0.000921669,0.00137009,0.00127918,0.0165863,0.011401,0.000753555,0.00121681,0.000150719,-0.0486504,0.000335541,0.00123108,0.00753811,-0.0210455,0.00132565,0.00153545,-0.0093222
9,1,0,0,0,0,0,0,231.8,254,0,0,0,0,0,0,0,231.8,766,0,0.000578347,0.00018753,0.000668831,0.0156707,0.0103329,0.000486526,0.00098793,0.00076107,-0.0190102,0.000106659,-0.000447388,0.00685146,-0.0211981,0.00166897,0.00111584,-0.00947479
9,2,0,0,0,0,0,0,231.8,254,0,0,0,0,0,0,0,231.8,766,0,0.00137943,0.000912323,0.000439949,0.016777,0.00930294,0.00094429,0.00106422,-7.81631e-05,-0.0011956,0.000488129,0.000811462,0.00849178,-0.0202063,0.000753441,-0.000524483,-0.00897888
9,3,0,0,0,0,0,0,231.8,254,0,0,0,0,0,0,0,231.8,766,0,0.000692788,0.000607147,0.0010503,0.0167389,0.0103329,0.000906143,0.000720901,0.000379601,0.058924,6.85118e-05,0.00145996,0.0142138,-0.0203589,0.0012112,0.000276604,-0.00878815
9,4,0,0,0,0,0,0,231.8,254,0,0,0,0,0,0,0,231.8,766,0,0.00103611,0.000340118,0.00093586,0.01548,0.00941738,0.00102058,0.000301285,-0.000307045,-0.00352257,0.000297394,0.00058258,0.0161975,-0.0195578,0.00197414,0.000963249,-0.00894073
9,5,0,0,0,0,0,0,231.8,254,0,0,0,0,0,0,0,231.8,766,0,-0.000299034,0.000340118,0.000516243,0.0158996,0.00884518,0.000219498,0.000415726,0.000227013,-0.0203454,0.000945892,-0.0002948,0.0149386,-0.0218085,0.000562706,0.00149731,-0.00772003
9,6,0,0,0,0,0,0,231.8,254,0,0,0,0,0,0,0,231.8,766,0,0.0017609,0.00117935,0.00131733,0.017044,0.0066708,0.00105873,0.00060646,0.000532188,0.0655616,0.000945892,0.000124817,0.0150149,-0.0201682,0.00124935,0.000391045,-0.0081015
9,7,0,0,0,0,0,0,231.8,254,0,0,0,0,0,0,0,231.8,766,0,0.000463906,0.000225677,0.00158436,0.0158996,0.00712856,0.00117317,0.00102608,0.000150719,-0.00264519,0.000259247,0.00123108,0.0124591,-0.0197485,0.00155453,0.000925102,-0.00825409
9,8,0,0,0,0,0,0,231.8,254,0,0,0,0,0,0,0,231.8,766,0,0.000578347,0.00018753,0.000363655,0.0155182,0.00586971,-0.000581589,-0.000309067,0.000379601,-0.0199258,-0.000656281,-0.00124847,0.0113528,-0.0226096,-0.000200233,-0.000524483,-0.00981812
9,9,0,0,0,0,0,0,231.8,254,0,0,0,0,0,0,0,231.8,766,0,0.00115055,0.000225677,0.000897713,0.0162429,0.00461086,0.000486526,0.000415726,-0.000421486,0.0795615,0.00140366,0.000887756,0.0153201,-0.0202063,0.000448265,0.000925102,-0.00825409
10,0,0,0,0,0,0,0,231.8,254,0,0,0,0,0,0,0,231.8,766,0,0.000654641,0.000263824,0.000630684,0.0157852,0.0028561,0.00094429,0.00121681,0.000112572,0.000368424,3.03648e-05,0.000506287,0.0139468,-0.02013,0.00124935,0.000658073,-0.00928406
10,1,0,0,0,0,0,0,231.8,254,0,0,0,0,0,0,0,231.8,766,0,-0.000108299,-0.000155793,0.0010503,0.0161285,0.000910606,-0.00031456,0.000911636,-4.00161e-05,-0.0247323,0.00163254,0.000201111,0.0136416,-0.0208929,0.000944176,4.77219e-05,-0.0101233
10,2,0,0,0,0,0,0,231.8,254,0,0,0,0,0,0,0,231.8,766,0,-0.000489769,-0.000117646,9.66262e-05,0.0150604,-0.00622288,0.000333939,0.000568314,0.000112572,0.0841773,0.000793304,-0.000332947,0.0123828,-0.0203207,0.000410118,-0.000295601,-0.00859741
10,3,0,0,0,0,0,0,231.8,254,0,0,0,0,0,0,0,231.8,766,0,0.000692788,0.000416412,0.00127918,0.016777,-0.00442997,0.000257645,0.000911636,-0.000535927,0.0044883,0.000793304,0.000544433,0.0136416,-0.0205496,0.00124935,0.000925102,-0.00859741
10,4,0,0,0,0,0,0,231.8,254,0,0,0,0,0,0,0,231.8,766,0,6.14207e-06,0.000645294,0.00116474,0.0165863,-0.00687138,0.00102058,0.000911636,0.000188866,-0.0518548,0.000144806,0.000773315,0.0152819,-0.0202826,0.000448265,0.00123028,-0.00985626
10,5,0,0,0,0,0,0,231.8,254,0,0,0,0,0,0,0,231.8,766,0,0.000235024,0.00117935,0.00131733,0.0160141,-0.00717655,0.000448379,0.00060646,-0.000726662,-0.00707024,0.00113663,0.000315552,0.0166552,-0.0210455,0.000753441,0.000810661,-0.00878815
10,6,0,0,0,0,0,0,231.8,254,0,0,0,0,0,0,0,231.8,766,0,0.0005402,-0.000537262,0.000478096,0.0170822,-0.00717655,0.000982437,0.000873489,7.44248e-05,0.0211585,0.000106659,0.00123108,0.0161212,-0.0203589,0.000181236,0.000963249,-0.00947479
10,7,0,0,0,0,0,0,231.8,254,0,0,0,0,0,0,0,231.8,766,0,0.000502053,0.000530853,5.84793e-05,0.0160141,-0.00538364,0.000600967,0.000415726,3.62778e-05,0.0502647,0.000182953,0.0010022,0.012955,-0.0200919,0.000410118,0.000543633,-0.00844482
10,8,0,0,0,0,0,0,231.8,254,0,0,0,0,0,0,0,231.8,766,0,0.000654641,0.00095047,0.000134773,0.0159378,-0.00332371,-0.000505295,0.00106422,0.000608482,-0.044378,0.00125107,-6.59181e-05,0.0158923,-0.02013,0.000181236,0.000238457,-0.00913147
10,9,0,0,0,0,0,0,231.8,254,0,0,0,0,0,0,0,231.8,766,0,0.000425759,0.000683441,0.000974007,0.0163955,-0.00214115,0.00151649,0.000949783,0.0010281,0.0309623,0.000945892,0.000925903,0.0169604,-0.0197485,0.00182156,0.00233654,-0.00775818
11,0,0,0,0,0,0,0,231.8,254,0,0,0,0,0,0,0,231.8,766,0,0.000883522,0.00140823,0.000706978,0.0158615,0.00541195,0.00113502,0.000720901,0.000646629,0.0501884,-0.000122223,0.000658874,0.0127261,-0.0200919,0.00132565,0.00180248,-0.00905518
11,1,0,0,0,0,0,0,231.8,254,0,0,0,0,0,0,0,231.8,766,0,8.2436e-05,0.000569,0.00017292,0.0153656,0.00434383,0.000677261,0.000453873,0.00026516,-0.0420129,0.000488129,4.85228e-05,0.0118106,-0.0200919,0.000333824,0.000772514,-0.00966553
11,2,0,0,0,0,0,0,231.8,254,0,0,0,0,0,0,0,231.8,766,0,6.14207e-06,0.000225677,0.000783272,0.0158996,0.00468716,0.000486526,-0.000309067,0.000341454,0.03451,0.000602569,-2.77711e-05,0.0149386,-0.0208548,0.000333824,-0.000333748,-0.00844482
11,3,0,0,0,0,0,0,231.8,254,0,0,0,0,0,0,0,231.8,766,0,0.000387612,0.000836029,0.00124104,0.0170822,0.00621304,0.000791702,0.000759048,0.000379601,0.0633491,0.00117477,0.00096405,0.0171511,-0.0219992,0.00132565,0.00214581,-0.00936035
11,4,0,0,0,0,0,0,231.8,254,0,0,0,0,0,0,0,231.8,766,0,-7.01519e-05,-4.13517e-05,0.000363655,0.0160904,0.00403866,0.000982437,0.000644607,7.44248e-05,-0.0465905,0.0002211,0.000353699,0.0134509,-0.0207785,0.000715294,9.57493e-06,-0.00768188
11,5,0,0,0,0,0,0,231.8,254,0,0,0,0,0,0,0,231.8,766,0,-0.000299034,0.000912323,0.00108845,0.0161666,0.00384792,0.000867996,0.000339432,0.000532188,0.0361503,0.00071701,-0.000142212,0.0164645,-0.0200156,0.00113491,0.00153545,-0.00859741
11,6,0,0,0,0,0,0,231.8,254,0,0,0,0,0,0,0,231.8,766,0,8.2436e-05,-0.000270233,0.00017292,0.0165481,-0.000882301,-0.000123825,-0.000118332,0.00076107,0.0694526,0.000755157,-0.000180359,0.0154727,-0.0220374,0.000791588,0.000734367,-0.00951294
11,7,0,0,0,0,0,0,231.8,254,0,0,0,0,0,0,0,231.8,766,0,0.000654641,0.00217117,0.000821419,0.0168151,0.00155911,0.00105873,0.00148384,-0.000192604,-0.0531518,0.00121292,0.00058258,0.0152056,-0.0210455,0.00151638,0.00145916,-0.00875
11,8,0,0,0,0,0,0,231.8,254,0,0,0,0,0,0,0,231.8,766,0,0.00103611,0.000874176,0.00017292,0.0158233,0.00255093,0.000791702,0.000339432,0.000837364,-0.0226723,-0.000770722,-0.000905151,0.0204699,-0.0205115,0.000677147,0.00164989,-0.00905518
11,9,0,0,0,0,0,0,231.8,254,0,0,0,0,0,0,0,231.8,766,0,-0.000108299,0.000912323,0.00150806,0.0167389,0.00194057,0.000677261,0.00121681,-0.000955543,-0.00478142,0.000984039,0.000162964,0.0186389,-0.0205496,0.00102047,8.58689e-05,-0.00829224
12,0,0,0,0,0,0,0,231.8,254,0,0,0,0,0,0,0,231.8,766,0,0.000311318,-0.000384674,0.000478096,0.0161285,0.00239834,0.00132576,0.000148697,7.44248e-05,0.056063,0.000602569,-0.000142212,0.0182574,-0.0200156,0.00117306,0.000505486,-0.00859741
12,1,0,0,0,0,0,0,231.8,254,0,0,0,0,0,0,0,231.8,766,0,0.000235024,0.000874176,0.000478096,0.0160141,0.000834313,0.000524673,0.000415726,0.000570335,-0.00520103,-8.40761e-05,0.000506287,0.0165789,-0.0206641,0.000944176,0.0015736,-0.00875
12,2,0,0,0,0,0,0,231.8,254,0,0,0,0,0,0,0,231.8,766,0,0.0005402,0.00140823,0.000974007,0.015747,0.00339016,0.000867996,0.00098793,0.000989952,-0.02519,0.000755157,-0.00147736,0.0170367,-0.0208548,0.000715294,0.00058178,-0.00768188
12,3,0,0,0,0,0,0,231.8,254,0,0,0,0,0,0,0,231.8,766,0,0.000997963,0.0012175,0.00150806,0.0168151,0.00243649,0.00109688,0.00144569,0.00121883,0.0655235,0.00117477,0.000887756,0.0144809,-0.0216177,0.00205044,0.000963249,-0.0081778
12,4,0,0,0,0,0,0,231.8,254,0,0,0,0,0,0,0,231.8,766,0,0.000959816,0.000225677,0.0010503,0.0168533,0.00216946,0.000105057,-4.2038e-05,0.000188866,-0.00825279,0.00220474,0.000124817,0.0127642,-0.02116,0.000562706,-0.000638924,-0.00878815
12,5,0,0,0,0,0,0,231.8,254,0,0,0,0,0,0,0,231.8,766,0,-3.20049e-05,-3.20468e-06,-0.000818901,0.0153274,-0.00179783,2.87627e-05,-0.000919418,3.62778e-05,-0.0225579,0.000526275,0.000239258,0.0134509,-0.0218085,-0.000505409,9.57493e-06,-0.0108481
12,6,0,0,0,0,0,0,231.8,254,0,0,0,0,0,0,0,231.8,766,0,0.000235024,0.000988617,0.00108845,0.0167389,-0.00141636,0.000867996,0.00060646,0.000227013,0.0797523,0.00132736,0.00096405,0.0126117,-0.0209692,0.00124935,-2.8572e-05,-0.00741486
12,7,0,0,0,0,0,0,231.8,254,0,0,0,0,0,0,0,231.8,766,0,0.000692788,7.30893e-05,0.0010503,0.01651,-0.00149265,0.00155464,0.00110237,0.000837364,-0.00146263,0.00106033,0.00046814,0.0113147,-0.0210074,0.00140194,0.000848808,-0.00905518
12,8,0,0,0,0,0,0,231.8,254,0,0,0,0,0,0,0,231.8,766,0,0.00015873,0.000301971,9.66262e-05,0.0147552,-0.00122562,0.00109688,0.000797195,0.000951805,-0.0266778,0.000259247,0.00111664,0.0121539,-0.0204733,-4.76455e-05,0.000886955,-0.00913147
12,9,0,0,0,0,0,0,231.8,254,0,0,0,0,0,0,0,231.8,766,0,0.00122685,-3.20468e-06,0.000287361,0.0152511,0.00159725,0.000448379,0.000835342,0.000150719,0.0843299,-0.000427399,-0.000905151,0.0100558,-0.0210455,0.00117306,0.000963249,-0.00951294
13,0,0,0,0,0,0,0,231.8,254,0,0,0,0,0,0,0,231.8,766,0,-0.000527916,0.0012175,0.00200397,0.0165863,0.00384792,0.00117317,0.00098793,0.00118069,0.00231392,0.00178513,0.00046814,0.00933102,-0.0210074,0.0012112,0.000925102,-0.0093985
13,1,0,0,0,0,0,0,231.8,254,0,0,0,0,0,0,0,231.8,766,0,0.000883522,0.000721588,-0.00020855,0.017044,0.00567898,0.00109688,0.000949783,0.00106625,-0.0539529,0.000602569,-6.59181e-05,0.00944546,-0.0215033,0.000867882,0.000352898,-0.00947479
13,2,0,0,0,0,0,0,231.8,254,0,0,0,0,0,0,0,231.8,766,0,0.00015873,0.000988617,0.00116474,0.0161666,0.00648006,0.00117317,0.000568314,0.000455895,-0.00981682,0.00106033,0.000391846,0.0123065,-0.0201682,0.000486412,-0.000104866,-0.00924591
13,3,0,0,0,0,0,0,231.8,254,0,0,0,0,0,0,0,231.8,766,0,-7.01519e-05,0.000836029,-5.59617e-05,0.0161285,0.00728115,0.00117317,3.42559e-05,-0.000192604,0.0187934,0.000678863,0.000849609,0.0164264,-0.0208548,0.00151638,0.00153545,-0.0103522
13,4,0,0,0,0,0,0,231.8,254,0,0,0,0,0,0,0,231.8,766,0,0.00137943,-4.13517e-05,0.000974007,0.0164337,0.00606045,0.000829849,0.00098793,0.000608482,0.0521339,0.00102219,-0.000485535,0.0167315,-0.0202826,0.000982323,0.000352898,-0.00775818
13,5,0,0,0,0,0,0,231.8,254,0,0,0,0,0,0,0,231.8,766,0,8.2436e-05,0.00018753,-0.000132256,0.0158996,0.00560268,0.000181351,-3.89107e-06,-0.000383339,-0.0478875,0.00125107,0.000353699,0.0165408,-0.0219229,-9.49856e-06,0.000391045,-0.0081778
13,6,0,0,0,0,0,0,231.8,254,0,0,0,0,0,0,0,231.8,766,0,0.00134129,0.000569,0.000745125,0.0155563,0.00770077,0.000677261,0.000759048,0.000989952,0.0285209,0.000488129,0.000201111,0.019974,-0.0206259,0.001936,0.000391045,-0.00791077
13,7,0,0,0,0,0,0,231.8,254,0,0,0,0,0,0,0,231.8,766,0,-7.01519e-05,0.00140823,0.00101215,0.0169296,0.00892147,0.00113502,0.000835342,0.00137142,0.0502265,0.00285324,0.000506287,0.0182193,-0.0211218,0.000715294,0.00161175,-0.00821594
13,8,0,0,0,0,0,0,231.8,254,0,0,0,0,0,0,0,231.8,766,0,-7.01519e-05,0.00159897,9.66262e-05,0.0172729,0.0103329,0.000639114,0.000911636,0.000532188,-0.0439202,0.000335541,0.000353699,0.0157016,-0.02013,0.00124935,-0.000333748,-0.00928406
13,9,0,0,0,0,0,0,231.8,254,0,0,0,0,0,0,0,231.8,766,0,0.000349465,-0.000117646,0.00055439,0.0162429,0.00815853,0.000410232,0.000797195,0.000227013,0.0333274,0.000335541,-0.000371094,0.0163501,-0.0219229,0.000295677,-0.000257454,-0.00951294
14,0,0,0,0,0,0,0,231.8,254,0,0,0,0,0,0,0,231.8,766,0,0.000311318,0.000569,-5.59617e-05,0.0155182,0.0091885,0.00113502,0.000186844,0.000913658,0.0642646,0.000182953,0.000315552,0.0165408,-0.0204733,0.000524559,-6.6719e-05,-0.00733856
14,1,0,0,0,0,0,0,231.8,254,0,0,0,0,0,0,0,231.8,766,0,0.00126499,0.000683441,0.00055439,0.0164337,0.00930294,0.000677261,0.00117867,0.00121883,-0.0486886,0.000869598,1.03759e-05,0.0181811,-0.0209311,0.00136379,0.000963249,-0.0093985
14,2,0,0,0,0,0,0,231.8,254,0,0,0,0,0,0,0,231.8,766,0,0.000692788,0.000721588,-0.00020855,0.01651,0.00689968,2.87627e-05,-0.00065239,-0.000230751,0.0357307,0.0002211,0.000277405,0.0201266,-0.0218848,0.000410118,0.000429192,-0.00825409
14,3,0,0,0,0,0,0,231.8,254,0,0,0,0,0,0,0,231.8,766,0,0.000769082,0.000263824,2.03323e-05,0.0162048,0.00468716,0.000410232,0.000949783,0.000875511,0.0720847,0.000984039,0.00153625,0.0208895,-0.0217322,0.00136379,8.58689e-05,-0.00905518
14,4,0,0,0,0,0,0,231.8,254,0,0,0,0,0,0,0,231.8,766,0,0.000502053,0.00110306,0.00124104,0.0176925,0.00468716,0.00113502,0.00129311,0.0010281,-0.0560509,0.00250992,0.00046814,0.0194781,-0.0204352,0.00182156,0.00111584,-0.00859741
14,5,0,0,0,0,0,0,231.8,254,0,0,0,0,0,0,0,231.8,766,0,0.000387612,0.000721588,9.66262e-05,0.0164337,0.00693783,0.00105873,0.00121681,0.000837364,-0.0252282,0.00113663,1.03759e-05,0.0199359,-0.0210074,0.000753441,0.00203136,-0.00787262
14,6,0,0,0,0,0,0,231.8,254,0,0,0,0,0,0,0,231.8,766,0,0.000845375,0.000874176,0.000211067,0.01651,0.0060223,0.000486526,0.000568314,0.000913658,-0.00672691,0.00125107,0.000506287,0.0173419,-0.0210837,0.00113491,0.000162163,-0.00943665
14,7,0,0,0,0,0,0,231.8,254,0,0,0,0,0,0,0,231.8,766,0,0.000730935,0.000263824,0.00135548,0.0168151,0.0102566,0.00166908,0.00060646,0.00152401,0.0574744,0.000984039,0.000620727,0.0153582,-0.0203589,0.00163082,0.000658073,-0.00737671
14,8,0,0,0,0,0,0,231.8,254,0,0,0,0,0,0,0,231.8,766,0,0.000616494,0.000378265,0.000745125,0.0167389,0.00945553,0.000372085,0.000415726,0.000570335,-0.00542992,0.00132736,0.00134552,0.0128787,-0.0210074,0.00132565,0.000963249,-0.00916962
14,9,0,0,0,0,0,0,231.8,254,0,0,0,0,0,0,0,231.8,766,0,0.000387612,-7.94986e-05,-0.000437431,0.0159759,0.00445827,0.000295792,-0.00027092,0.000227013,-0.0276696,0.00155624,0.000735168,0.0117343,-0.0209692,-9.49856e-06,0.000391045,-0.00955109
15,0,0,0,0,0,0,0,231.8,254,0,0,0,0,0,0,0,231.8,766,0,-0.000260887,3.49423e-05,9.66262e-05,0.0158615,0.00384792,0.000257645,0.000911636,0.000913658,0.0673164,-7.78213e-06,0.000124817,0.0120776,-0.0224951,0.000410118,0.00130657,-0.0081778
15,1,0,0,0,0,0,0,231.8,254,0,0,0,0,0,0,0,231.8,766,0,0.000311318,0.000301971,0.000478096,0.0168151,0.00369534,0.000715408,0.000873489,-0.000268898,-0.00684135,0.00174698,0.00058258,0.00975063,-0.0206641,0.00174526,0.000925102,-0.00913147
15,2,0,0,0,0,0,0,231.8,254,0,0,0,0,0,0,0,231.8,766,0,0.000921669,0.000874176,0.000211067,0.0168151,0.00388607,0.000906143,0.000682754,0.0010281,-0.0250756,0.00121292,0.000658874,0.0095599,-0.0212363,0.00025753,0.00119213,-0.0068808
15,3,0,0,0,0,0,0,231.8,254,0,0,0,0,0,0,0,231.8,766,0,0.00172276,0.000569,0.00166065,0.017044,0.00358089,0.00121132,0.0020179,0.00140957,0.0804389,0.00201401,0.00115479,0.00982693,-0.02013,0.00166897,0.00134472,-0.00783447
15,4,0,0,0,0,0,0,231.8,254,0,0,0,0,0,0,0,231.8,766,0,0.00130314,0.00159897,0.00120289,0.0162048,0.00377163,0.00132576,-0.000194626,0.000875511,-0.00245445,0.00140366,0.000429993,0.00959804,-0.0203589,0.000982323,0.000886955,-0.00848297
15,5,0,0,0,0,0,0,231.8,254,0,0,0,0,0,0,0,231.8,766,0,0.000883522,0.00140823,0.000363655,0.0162811,0.0029324,0.000333939,0.000224991,-0.000459633,-0.0286233,0.00102219,0.000201111,0.00833919,-0.0213889,0.000791588,0.000963249,-0.00806335
15,6,0,0,0,0,0,0,231.8,254,0,0,0,0,0,0,0,231.8,766,0,0.000196877,-0.000651703,-0.000590019,0.0161285,0.00361904,0.000829849,0.000720901,0.000494041,0.0849403,0.000182953,-0.00067627,0.0112384,-0.0215796,0.000410118,8.58689e-05,-0.00875
15,7,0,0,0,0,0,0,231.8,254,0,0,0,0,0,0,0,231.8,766,0,0.00157017,0.00106491,0.000516243,0.017044,0.00247463,0.00128761,0.00140755,0.000684776,0.00162727,0.000106659,0.00180328,0.0128024,-0.0210837,0.00163082,0.0010014,-0.00726227
15,8,0,0,0,0,0,0,231.8,254,0,0,0,0,0,0,0,231.8,766,0,0.00103611,0.00095047,0.00124104,0.0163955,0.0040768,0.000143204,0.00163643,0.00076107,-0.0559365,0.00140366,-6.59181e-05,0.0144046,-0.0199011,0.000982323,0.00145916,-0.00806335
15,9,0,0,0,0,0,0,231.8,254,0,0,0,0,0,0,0,231.8,766,0,0.00153202,3.49423e-05,0.000363655,0.0168533,0.00598415,0.000257645,0.000797195,0.000532188,-0.011152,-0.00016037,0.00123108,0.0133364,-0.0215033,0.000410118,0.00145916,-0.0093985
16,0,0,0,0,0,0,0,231.8,254,0,0,0,0,0,0,0,231.8,766,0,0.000997963,0.00117935,0.000706978,0.0152511,0.00640377,0.000372085,0.000263138,0.000303307,0.0225318,0.000602569,0.000887756,0.00788143,-0.0206641,0.000181236,0.00123028,-0.00779633
16,1,0,0,0,0,0,0,231.8,254,0,0,0,0,0,0,0,231.8,766,0,-0.000566063,0.000492706,5.84793e-05,0.0159378,0.00533566,-0.000161972,-0.000461655,0.000150719,0.0540031,0.000411835,0.000697021,0.00692776,-0.0209311,-0.000314674,0.000429192,-0.0109244
16,2,0,0,0,0,0,0,231.8,254,0,0,0,0,0,0,0,231.8,766,0,0.000120583,0.000416412,0.000249214,0.0160522,0.00358089,0.000677261,0.000453873,0.000837364,-0.0500619,0.000869598,0.00130737,0.00887325,-0.0218466,0.0012875,0.00145916,-0.00970367
16,3,0,0,0,0,0,0,231.8,254,0,0,0,0,0,0,0,231.8,766,0,0.00141758,0.000492706,0.000592537,0.0171203,0.00342831,0.000753555,0.000301285,0.000227013,0.029322,0.00159439,0.000124817,0.0140231,-0.0200919,0.000371971,0.00145916,-0.00691895
16,4,0,0,0,0,0,0,231.8,254,0,0,0,0,0,0,0,231.8,766,0,0.00179905,0.00156082,0.00055439,0.0169677,-0.00114933,0.00140205,0.00114052,0.000646629,0.051142,0.00109848,0.00145996,0.0149005,-0.0204352,0.00170712,0.00149731,-0.00794891
16,5,0,0,0,0,0,0,231.8,254,0,0,0,0,0,0,0,231.8,766,0,0.000425759,0.000492706,0.00120289,0.0164718,-0.000920448,0.000448379,0.000415726,0.000913658,-0.0461709,0.00109848,0.000201111,0.0116961,-0.0203589,0.000715294,-6.6719e-05,-0.00867371
16,6,0,0,0,0,0,0,231.8,254,0,0,0,0,0,0,0,231.8,766,0,-0.000260887,-0.000842438,-0.000170403,0.0152893,0.00255093,-0.000161972,-0.00065239,-1.86916e-06,0.0348533,-0.000656281,-0.000752564,0.00780514,-0.0218085,-0.000276527,0.000886955,-0.00890259
16,7,0,0,0,0,0,0,231.8,254,0,0,0,0,0,0,0,231.8,766,0,0.000273171,0.000874176,0.000897713,0.0158615,0.00651821,0.000333939,0.00049202,-0.000421486,0.0653327,0.00071701,0.000315552,0.0128787,-0.0205878,0.000639,-6.6719e-05,-0.00936035
16,8,0,0,0,0,0,0,231.8,254,0,0,0,0,0,0,0,231.8,766,0,0.00103611,0.00018753,2.03323e-05,0.0166244,0.00560268,0.000791702,0.000453873,0.00076107,-0.0515115,-0.000274811,0.000735168,0.0158541,-0.020397,0.000944176,0.00149731,-0.00943665
16,9,0,0,0,0,0,0,231.8,254,0,0,0,0,0,0,0,231.8,766,0,0.000959816,0.00117935,0.00135548,0.0171966,0.00167355,0.00109688,0.000377579,0.000989952,0.0363792,0.00113663,0.00126923,0.0140612,-0.0202444,0.00136379,0.00134472,-0.00913147
17,0,0,0,0,0,0,0,231.8,254,0,0,0,0,0,0,0,231.8,766,0,0.00015873,-0.000117646,0.000478096,0.0160904,0.000910606,0.00102058,0.000644607,3.62778e-05,0.0732673,0.000144806,0.000658874,0.0157016,-0.0202444,0.000639,0.00069622,-0.00886444
17,1,0,0,0,0,0,0,231.8,254,0,0,0,0,0,0,0,231.8,766,0,-3.20049e-05,7.30893e-05,0.000287361,0.0143737,0.000185814,0.000639114,0.000263138,0.000112572,-0.0592553,-4.59291e-05,8.66698e-05,0.0150912,-0.0205496,0.000410118,0.0010014,-0.00936035
17,2,0,0,0,0,0,0,231.8,254,0,0,0,0,0,0,0,231.8,766,0,0.000959816,0.000759735,0.00135548,0.0163192,-0.00168339,0.000524673,0.000415726,0.00106625,-0.0265252,0.000640716,0.000201111,0.0136035,-0.0212744,0.00147823,0.00119213,-0.00920776
17,3,0,0,0,0,0,0,231.8,254,0,0,0,0,0,0,0,231.8,766,0,0.000807228,-7.94986e-05,0.000325508,0.0163192,-0.00435368,0.000372085,0.00011055,0.000341454,-0.00581139,0.000564422,0.000544433,0.0151294,-0.0208929,0.000181236,0.00203136,-0.00936035
17,4,0,0,0,0,0,0,231.8,254,0,0,0,0,0,0,0,231.8,766,0,0.0011124,0.000492706,-0.000780754,0.0166626,-0.00256077,0.000143204,0.000873489,0.000799217,0.0623954,-0.00016037,-6.59181e-05,0.0109713,-0.0213126,0.000143089,-0.000753365,-0.00890259
17,5,0,0,0,0,0,0,231.8,254,0,0,0,0,0,0,0,231.8,766,0,0.000387612,0.000874176,0.00093586,0.0159759,-0.00336185,0.000639114,0.00121681,0.000112572,-0.00714653,0.000259247,0.00046814,0.00715664,-0.0209692,0.0012112,0.00119213,-0.00852112
17,6,0,0,0,0,0,0,231.8,254,0,0,0,0,0,0,0,231.8,766,0,0.000997963,0.00144638,0.000516243,0.0163955,-0.00332371,0.00105873,0.000835342,0.000455895,-0.028814,0.000831451,0.00149811,0.0105136,-0.0205115,0.00144009,0.00149731,-0.00863556
17,7,0,0,0,0,0,0,231.8,254,0,0,0,0,0,0,0,231.8,766,0,-3.20049e-05,-0.000232087,0.000745125,0.0158233,-0.00633732,0.000486526,0.00011055,-0.000192604,0.0672401,0.000144806,-0.000332947,0.00822475,-0.0211981,-0.000162086,0.000124016,-0.00760559
17,8,0,0,0,0,0,0,231.8,254,0,0,0,0,0,0,0,231.8,766,0,0.000502053,0.000492706,-0.00032299,0.0156326,-0.00755802,0.000257645,0.000568314,3.62778e-05,-0.0068795,-0.000389252,-0.000104065,0.00875881,-0.0206259,0.000753441,0.00184063,-0.00871185
17,9,0,0,0,0,0,0,231.8,254,0,0,0,0,0,0,0,231.8,766,0,0.000997963,0.00117935,0.00101215,0.0166626,-0.00931278,-0.000123825,0.00163643,0.0016766,-0.0267159,0.00125107,0.00153625,0.0149005,-0.0219992,0.00102047,0.000963249,-0.00802521
18,0,0,0,0,0,0,0,231.8,254,0,0,0,0,0,0,0,231.8,766,0,0.000921669,-7.94986e-05,0.000287361,0.0161285,-0.0085117,0.000715408,7.24029e-05,0.00026516,0.082804,0.000831451,0.000201111,0.0204699,-0.0211981,-4.76455e-05,0.00058178,-0.0081015
18,1,0,0,0,0,0,0,231.8,254,0,0,0,0,0,0,0,231.8,766,0,-0.000108299,0.000378265,0.000630684,0.0150985,-0.00637547,0.000257645,0.000453873,7.44248e-05,-0.00401848,0.000602569,0.000315552,0.0193637,-0.02116,0.000181236,0.000467339,-0.00840668
18,2,0,0,0,0,0,0,231.8,254,0,0,0,0,0,0,0,231.8,766,0,0.00137943,0.0011412,0.000974007,0.0174255,-0.00523106,0.000486526,0.000797195,3.62778e-05,-0.0310647,0.00167068,0.00123108,0.0197833,-0.0197104,0.000753441,0.00069622,-0.00878815
18,3,0,0,0,0,0,0,231.8,254,0,0,0,0,0,0,0,231.8,766,0,0.000387612,0.000301971,0.000974007,0.0170822,0.000262108,0.00109688,0.00106422,0.00076107,0.0874961,-0.000961456,0.00111664,0.0171511,-0.0213889,0.000333824,0.00180248,-0.00913147
18,4,0,0,0,0,0,0,231.8,254,0,0,0,0,0,0,0,231.8,766,0,0.000845375,0.000530853,0.00055439,0.0158996,0.0028561,-0.000390854,-0.000385361,-0.000726662,0.0012458,0.000831451,0.000544433,0.0149005,-0.0215033,-0.000429115,0.000963249,-0.00909332
18,5,0,0,0,0,0,0,231.8,254,0,0,0,0,0,0,0,231.8,766,0,0.00103611,0.000683441,0.000706978,0.0160522,0.00567898,0.000791702,0.000644607,0.000417748,-0.0591409,0.000297394,0.00119293,0.0180285,-0.02116,0.000639,8.58689e-05,-0.0093985
18,6,0,0,0,0,0,0,231.8,254,0,0,0,0,0,0,0,231.8,766,0,0.000769082,0.000645294,0.00116474,0.0161666,0.00937923,0.000715408,0.000644607,-0.000230751,-0.00985496,-0.000427399,-0.000332947,0.0170749,-0.0205115,0.000829735,0.00206951,-0.00875
18,7,0,0,0,0,0,0,231.8,254,0,0,0,0,0,0,0,231.8,766,0,0.00122685,-0.000575409,0.000401802,0.0157852,0.00831112,0.000295792,-8.0185e-05,0.000188866,0.0369895,-0.000808869,0.000697021,0.0187152,-0.0204352,-4.76455e-05,0.000429192,-0.00897888
18,8,0,0,0,0,0,0,231.8,254,0,0,0,0,0,0,0,231.8,766,0,8.2436e-05,-7.94986e-05,0.000363655,0.015213,0.00556454,0.000295792,0.000797195,-0.000955543,0.172221,0.000755157,1.03759e-05,0.0153201,-0.0211981,0.000295677,0.000162163,-0.00798706
18,9,0,0,0,0,0,0,231.8,254,0,0,0,0,0,0,0,231.8,766,0,0.000997963,0.0011412,0.000363655,0.01548,0.00541195,0.000600967,0.000949783,0.00125698,0.162302,0.000907745,0.000620727,0.0185244,-0.0201682,0.000791588,0.000886955,-0.00905518
19,0,0,0,0,0,0,0,231.8,254,0,0,0,0,0,0,0,231.8,766,0,0.000769082,0.00137009,0.00181324,0.0174255,0.00564083,0.000982437,0.00133125,-0.000345192,0.13888,0.000945892,0.00130737,0.0184481,-0.0191382,0.00178341,0.00153545,-0.00783447
19,1,0,0,0,0,0,0,231.8,254,0,0,0,0,0,0,0,231.8,766,0,-7.01519e-05,-0.000880585,0.000897713,0.0160141,0.00468716,0.000982437,0.000949783,0.000227013,0.00834114,-0.000274811,0.000429993,0.0202029,-0.0202063,0.000333824,0.000848808,-0.00802521
19,2,0,0,0,0,0,0,231.8,254,0,0,0,0,0,0,0,231.8,766,0,0.000921669,0.000645294,0.000249214,0.0150604,-0.000310097,0.000333939,-3.89107e-06,0.000188866,-0.124105,3.03648e-05,0.000697021,0.0168841,-0.0208167,0.000295677,-2.8572e-05,-0.00920776
19,3,0,0,0,0,0,0,231.8,254,0,0,0,0,0,0,0,231.8,766,0,0.000654641,0.000836029,0.0016988,0.0158996,-0.00328556,0.000372085,0.00171272,0.00118069,-0.00520103,0.00147995,0.000315552,0.0174182,-0.0200919,0.000486412,0.00134472,-0.00760559
19,4,0,0,0,0,0,0,231.8,254,0,0,0,0,0,0,0,231.8,766,0,0.00134129,0.0012175,0.000134773,0.0168151,-0.0028278,0.00102058,-0.000232773,0.000646629,0.0222266,0.00140366,0.000429993,0.0187152,-0.0201682,0.000600853,0.0015736,-0.00802521
19,5,0,0,0,0,0,0,231.8,254,0,0,0,0,0,0,0,231.8,766,0,0.000349465,0.000874176,0.000859566,0.0167389,0.00049099,0.00102058,0.000568314,0.000532188,-0.0999581,0.00136551,0.00153625,0.0167315,-0.0212744,0.000524559,-2.8572e-05,-0.00852112
19,6,0,0,0,0,0,0,231.8,254,0,0,0,0,0,0,0,231.8,766,0,0.000654641,0.00117935,0.000821419,0.0160141,0.0022839,-0.000238266,-4.2038e-05,0.000608482,-0.00176781,0.000755157,1.03759e-05,0.0152819,-0.0209692,-0.000810585,0.000124016,-0.0081015
19,7,0,0,0,0,0,0,231.8,254,0,0,0,0,0,0,0,231.8,766,0,0.00130314,0.000874176,0.000592537,0.0155563,0.0040768,0.000295792,0.000263138,7.44248e-05,0.0408805,0.00186142,0.000811462,0.0133746,-0.0203207,0.00124935,0.000543633,-0.00844482
19,8,0,0,0,0,0,0,231.8,254,0,0,0,0,0,0,0,231.8,766,0,0.00107426,0.000721588,0.00158436,0.0158615,0.00457272,0.00170723,0.000911636,-0.000154457,-0.0943124,0.00231918,0.000735168,0.015816,-0.0193289,0.000867882,0.0010014,-0.00768188
19,9,0,0,0,0,0,0,231.8,254,0,0,0,0,0,0,0,231.8,766,0,0.000845375,0.000607147,0.000706978,0.0162811,0.00133022,0.000867996,0.000568314,0.000722923,-0.0541436,3.03648e-05,0.0015744,0.0158923,-0.0202063,0.000600853,4.77219e-05,-0.00722412
20,0,0,0,0,0,0,0,231.8,254,0,0,0,0,0,0,0,231.8,766,0,0.000921669,0.000378265,0.00131733,0.0159759,0.00258907,0.000524673,0.000186844,-0.000383339,-0.0302636,0.000831451,0.000429993,0.0188678,-0.0205115,0.000753441,0.00153545,-0.0081778
20,1,0,0,0,0,0,0,231.8,254,0,0,0,0,0,0,0,231.8,766,0,0.00103611,0.000263824,0.000439949,0.0159378,0.00735744,0.000524673,0.000530167,0.000303307,0.0417197,0.000907745,-0.000599976,0.018143,-0.0199393,0.000715294,0.00138287,-0.00882629
20,2,0,0,0,0,0,0,231.8,254,0,0,0,0,0,0,0,231.8,766,0,0.000883522,0.00110306,0.00101215,0.0165481,0.00743374,0.000295792,0.00213234,0.000227013,-0.0263345,0.000106659,0.00203217,0.0181048,-0.020397,0.00136379,0.00115398,-0.00886444
20,3,0,0,0,0,0,0,231.8,254,0,0,0,0,0,0,0,231.8,766,0,0.000883522,0.000340118,0.000783272,0.0162048,0.0091885,-8.56782e-05,0.000339432,-0.000459633,-0.0428139,0.000984039,-0.000561829,0.0165408,-0.0208929,0.000410118,-0.000791511,-0.00924591
20,4,0,0,0,0,0,0,231.8,254,0,0,0,0,0,0,0,231.8,766,0,4.4289e-05,0.000607147,0.000363655,0.0159378,0.0136517,-4.75312e-05,-4.2038e-05,-7.81631e-05,0.0578178,-7.78213e-06,0.00104034,0.0183718,-0.021694,0.000562706,0.00115398,-0.00913147
20,5,0,0,0,0,0,0,231.8,254,0,0,0,0,0,0,0,231.8,766,0,0.000692788,-0.000117646,0.000745125,0.0159378,0.0152157,0.000867996,0.000835342,0.000227013,-0.0174844,0.00109848,0.000162964,0.0112765,-0.0199011,0.000944176,0.00020031,-0.0081778
20,6,0,0,0,0,0,0,231.8,254,0,0,0,0,0,0,0,231.8,766,0,0.000959816,0.00159897,0.00158436,0.0167007,0.0164364,0.00147835,0.000759048,0.00106625,-0.0330483,0.000869598,0.000391846,0.0131457,-0.0202444,6.67954e-05,0.00130657,-0.00802521
20,7,0,0,0,0,0,0,231.8,254,0,0,0,0,0,0,0,231.8,766,0,0.000997963,0.00106491,0.00093586,0.0168914,0.0171994,0.00124947,0.000186844,0.000684776,0.0784553,0.00102219,0.00161255,0.0163119,-0.0205115,0.00224117,0.000619926,-0.00836853
20,8,0,0,0,0,0,0,231.8,254,0,0,0,0,0,0,0,231.8,766,0,0.000769082,0.000378265,0.000821419,0.0165481,0.0226544,0.00102058,-0.000347214,3.62778e-05,-0.00634544,0.00205215,0.000735168,0.0139468,-0.0199393,0.000448265,0.000467339,-0.00707153
20,9,0,0,0,0,0,0,231.8,254,0,0,0,0,0,0,0,231.8,766,0,0.000654641,0.00163712,0.00158436,0.0160522,0.0229596,0.00056282,0.000263138,-0.000421486,-0.0309884,0.000793304,0.00168884,0.0160449,-0.0198248,0.000524559,0.00107769,-0.00848297
21,0,0,0,0,0,0,0,231.8,254,0,0,0,0,0,0,0,231.8,766,0,0.00137943,0.000797882,0.00108845,0.0170059,0.0204037,0.000486526,0.00190346,0.00106625,0.0870383,0.00140366,0.00203217,0.0159304,-0.0201682,0.000486412,0.000543633,-0.00901703
21,1,0,0,0,0,0,0,231.8,254,0,0,0,0,0,0,0,231.8,766,0,-0.000527916,0.00140823,0.00055439,0.0160522,0.0181149,0.000829849,-0.000461655,-0.000688515,0.00143654,0.000793304,-0.000371094,0.0143664,-0.0207404,0.000600853,-0.000333748,-0.0106955
21,2,0,0,0,0,0,0,231.8,254,0,0,0,0,0,0,0,231.8,766,0,0.000616494,0.000378265,0.000706978,0.0165863,0.0192593,0.000715408,0.00060646,0.000379601,-0.0557458,0.00106033,0.000773315,0.0126498,-0.0212363,0.000410118,-0.000410042,-0.00882629
21,3,0,0,0,0,0,0,231.8,254,0,0,0,0,0,0,0,231.8,766,0,8.2436e-05,0.000721588,0.00131733,0.0161285,0.0165509,0.00147835,-3.89107e-06,0.000799217,-0.00859611,0.000945892,0.000315552,0.0131839,-0.0202063,0.000143089,-0.000753365,-0.00749115
21,4,0,0,0,0,0,0,231.8,254,0,0,0,0,0,0,0,231.8,766,0,4.4289e-05,0.0017897,0.00101215,0.0157852,0.0171994,0.000181351,0.00060646,0.000837364,0.024134,0.00113663,8.66698e-05,0.0123065,-0.0219229,0.000867882,0.00058178,-0.00882629
21,5,0,0,0,0,0,0,231.8,254,0,0,0,0,0,0,0,231.8,766,0,0.0011887,0.000836029,0.000325508,0.0167007,0.0141095,0.000295792,-0.000194626,-0.000688515,0.0572074,0.000869598,-0.000104065,0.0110095,-0.0207785,0.000295677,0.000124016,-0.00886444
21,6,0,0,0,0,0,0,231.8,254,0,0,0,0,0,0,0,231.8,766,0,-0.000337181,0.000759735,0.000401802,0.0154419,0.012164,0.000867996,0.000797195,0.000455895,-0.0457513,0.00186142,0.000429993,0.0100558,-0.0208167,0.0012875,0.000619926,-0.00844482
21,7,0,0,0,0,0,0,231.8,254,0,0,0,0,0,0,0,231.8,766,0,0.00168461,0.00175156,0.00177509,0.0168151,0.0117825,0.000600967,0.00098793,0.00144772,0.0340522,0.000869598,0.00142181,0.0140231,-0.0205878,0.000867882,0.00164989,-0.00791077
21,8,0,0,0,0,0,0,231.8,254,0,0,0,0,0,0,0,231.8,766,0,0.000311318,0.00125565,0.00131733,0.0171203,0.00850185,0.00128761,0.00110237,-0.000650368,0.0565208,0.0014418,0.00130737,0.0152819,-0.0199011,0.00124935,0.000886955,-0.00760559
21,9,0,0,0,0,0,0,231.8,254,0,0,0,0,0,0,0,231.8,766,0,6.14207e-06,-0.000766144,2.03323e-05,0.0155563,0.00495419,0.00094429,0.000720901,-0.000421486,-0.0429665,6.85118e-05,0.000315552,0.011925,-0.0210074,-0.000200233,0.000238457,-0.0093985
22,0,0,0,0,0,0,0,231.8,254,0,0,0,0,0,0,0,231.8,766,0,0.000387612,0.000874176,0.000783272,0.0164718,0.00186428,0.000867996,0.00129311,0.000112572,0.0396217,0.00128921,0.000620727,0.0107806,-0.0213889,0.000982323,0.000391045,-0.00901703
22,1,0,0,0,0,0,0,231.8,254,0,0,0,0,0,0,0,231.8,766,0,0.000311318,0.000912323,5.84793e-05,0.0160141,-0.00164524,0.00132576,0.000568314,0.000341454,0.0715507,0.00205215,-0.000218506,0.0138705,-0.0201682,0.00159267,0.00206951,-0.00833038
22,2,0,0,0,0,0,0,231.8,254,0,0,0,0,0,0,0,231.8,766,0,0.000807228,0.001866,0.000363655,0.0161666,-0.0015308,0.000791702,0.000568314,0.000379601,-0.0462853,0.00128921,0.00142181,0.0144046,-0.0218466,0.000753441,0.00126843,-0.00890259
22,3,0,0,0,0,0,0,231.8,254,0,0,0,0,0,0,0,231.8,766,0,-3.20049e-05,0.000607147,0.00017292,0.0162048,-0.00145451,0.000486526,0.000759048,-0.000307045,0.0414527,0.000678863,-0.0002948,0.0131839,-0.0197485,0.000143089,-0.00117298,-0.00859741
22,4,0,0,0,0,0,0,231.8,254,0,0,0,0,0,0,0,231.8,766,0,0.000311318,0.00209488,0.00093586,0.0164718,0.000643578,0.00121132,0.000453873,0.000913658,0.077349,0.00167068,-0.000256653,0.0126498,-0.0202063,-0.00023838,0.00126843,-0.00920776
22,5,0,0,0,0,0,0,231.8,254,0,0,0,0,0,0,0,231.8,766,0,0.000883522,0.000263824,0.00108845,0.0171585,0.000948753,0.000448379,0.00114052,0.000455895,-0.0548684,0.000907745,0.0015744,0.0124591,-0.0212744,0.00132565,0.000810661,-0.00924591
22,6,0,0,0,0,0,0,231.8,254,0,0,0,0,0,0,0,231.8,766,0,-0.000489769,0.00140823,0.000859566,0.015747,-0.00584141,0.000906143,-0.000118332,7.44248e-05,-0.0229775,0.000793304,-0.000485535,0.0137561,-0.0205496,0.00117306,0.000619926,-0.00756744
22,7,0,0,0,0,0,0,231.8,254,0,0,0,0,0,0,0,231.8,766,0,0.00015873,0.000759735,0.00055439,0.0173874,-0.00359074,0.00109688,0.00121681,0.00076107,-0.00256889,0.00132736,0.000697021,0.0136416,-0.0206259,0.00197414,0.00130657,-0.00844482
22,8,0,0,0,0,0,0,231.8,254,0,0,0,0,0,0,0,231.8,766,0,0.000502053,0.0011412,0.00112659,0.0164337,0.00125393,0.000486526,0.000835342,0.000684776,0.064875,0.00140366,0.00149811,0.0115435,-0.0213507,0.000982323,0.00115398,-0.00848297
22,9,0,0,0,0,0,0,231.8,254,0,0,0,0,0,0,0,231.8,766,0,0.000463906,0.00159897,0.000592537,0.0165481,0.00209316,0.000715408,0.000148697,0.000379601,-0.00275963,0.000793304,0.00111664,0.0123446,-0.0205115,0.000143089,0.00145916,-0.00920776
23,0,0,0,0,0,0,0,231.8,254,0,0,0,0,0,0,0,231.8,766,0,-0.000337181,0.000836029,0.000706978,0.0156707,0.0016354,0.000410232,0.000415726,-0.000268898,-0.02725,0.00117477,0.000315552,0.0152056,-0.0207404,0.00025753,-6.6719e-05,-0.00970367
23,1,0,0,0,0,0,0,231.8,254,0,0,0,0,0,0,0,231.8,766,0,-0.000451622,-0.000651703,-9.41086e-05,0.0166244,0.00487789,0.00056282,0.000682754,3.62778e-05,0.0707114,-8.40761e-05,-0.000523682,0.0142138,-0.0204733,0.000562706,0.00103954,-0.00955109
23,2,0,0,0,0,0,0,231.8,254,0,0,0,0,0,0,0,231.8,766,0,0.000845375,0.000492706,9.66262e-05,0.0160141,0.00567898,0.00170723,0.00121681,0.00026516,-0.00539177,0.000564422,0.00123108,0.0167697,-0.0204352,0.0018597,0.00168804,-0.00943665
23,3,0,0,0,0,0,0,231.8,254,0,0,0,0,0,0,0,231.8,766,0,0.000425759,0.00117935,0.00093586,0.0165481,0.00739559,0.00128761,0.00209419,0.000722923,-0.0246178,0.000869598,0.00046814,0.0182956,-0.0194052,0.00105862,0.00123028,-0.007453
23,4,0,0,0,0,0,0,231.8,254,0,0,0,0,0,0,0,231.8,766,0,0.000425759,0.000912323,0.00108845,0.0166244,0.0128125,0.00102058,0.00152199,-0.000383339,0.0844444,0.00109848,0.00046814,0.0161212,-0.0203589,0.000600853,0.000925102,-0.00928406
23,5,0,0,0,0,0,0,231.8,254,0,0,0,0,0,0,0,231.8,766,0,0.000692788,0.00117935,0.00055439,0.0166626,0.0155972,0.000677261,-4.2038e-05,-0.000230751,-0.00272148,0.00132736,0.00138367,0.0149005,-0.0213889,0.00117306,8.58689e-05,-0.00916962
23,6,0,0,0,0,0,0,231.8,254,0,0,0,0,0,0,0,231.8,766,0,0.000425759,0.00125565,0.000783272,0.0168914,0.0136135,0.00121132,0.000263138,0.000112572,-0.0302254,0.00132736,0.00115479,0.0137179,-0.0199393,0.00178341,0.000963249,-0.00977997
23,7,0,0,0,0,0,0,231.8,254,0,0,0,0,0,0,0,231.8,766,0,0.000578347,0.00137009,0.000897713,0.0160141,0.0107907,0.00151649,0.00114052,0.00121883,0.0896323,-8.40761e-05,0.000620727,0.0144427,-0.0199393,0.00117306,0.00184063,-0.00897888
23,8,0,0,0,0,0,0,231.8,254,0,0,0,0,0,0,0,231.8,766,0,0.000425759,-0.000575409,-0.000628166,0.0165481,0.0073193,0.000410232,0.000415726,-0.000154457,0.00128395,-0.000198517,-0.00132477,0.013489,-0.0200156,0.00102047,0.000467339,-0.00894073
23,9,0,0,0,0,0,0,231.8,254,0,0,0,0,0,0,0,231.8,766,0,0.000502053,0.000530853,0.000592537,0.0149078,0.00277981,0.000982437,0.00156013,0.000417748,-0.0577676,0.000259247,-0.000218506,0.0118869,-0.0214651,0.00025753,0.00203136,-0.00821594
24,0,0,0,0,0,0,0,231.8,254,0,0,0,0,0,0,0,231.8,766,0,0.000997963,0.00110306,0.000706978,0.0153274,-0.000348244,-8.56782e-05,0.00049202,0.000494041,-0.0105416,0.000106659,-0.000142212,0.0135653,-0.0213126,0.000524559,-0.000295601,-0.00768188
24,1,0,0,0,0,0,0,231.8,254,0,0,0,0,0,0,0,231.8,766,0,-7.01519e-05,0.00125565,0.00177509,0.0175018,0.000567284,0.000906143,7.24029e-05,0.000227013,0.018679,0.000755157,0.000544433,0.0135272,-0.0204352,0.00155453,0.00164989,-0.00897888
24,2,0,0,0,0,0,0,231.8,254,0,0,0,0,0,0,0,231.8,766,0,0.000502053,0.000683441,-1.78147e-05,0.0166626,-4.30678e-05,0.00056282,0.000911636,0.00118069,0.0573219,0.000984039,0.000124817,0.0148242,-0.0210837,0.000829735,0.00168804,-0.00920776
24,3,0,0,0,0,0,0,231.8,254,0,0,0,0,0,0,0,231.8,766,0,0.000807228,0.000759735,0.000211067,0.0161666,-0.00290409,-0.000200119,0.00060646,7.44248e-05,-0.052961,-4.59291e-05,0.00046814,0.0153201,-0.0215796,0.000600853,0.000886955,-0.00981812
24,4,0,0,0,0,0,0,231.8,254,0,0,0,0,0,0,0,231.8,766,0,0.000235024,0.00156082,0.00166065,0.0158615,-0.00320927,0.00121132,0.000911636,0.00118069,0.0287116,0.000640716,0.000887756,0.0134509,-0.0190619,0.00208858,0.00164989,-0.00737671
24,5,0,0,0,0,0,0,231.8,254,0,0,0,0,0,0,0,231.8,766,0,0.00130314,0.00140823,0.00124104,0.0167007,-0.00538364,0.000791702,0.00110237,0.00026516,0.0525535,0.00136551,0.00046814,0.0095599,-0.0213507,0.000753441,0.00161175,-0.0099707
24,6,0,0,0,0,0,0,231.8,254,0,0,0,0,0,0,0,231.8,766,0,0.00015873,-0.000270233,-0.000170403,0.0161666,-0.00545994,0.000600967,0.000720901,0.000112572,-0.0496423,0.000297394,0.000391846,0.00868252,-0.0206259,0.000104942,8.58689e-05,-0.00855927
24,7,0,0,0,0,0,0,231.8,254,0,0,0,0,0,0,0,231.8,766,0,0.00115055,0.000874176,0.00158436,0.016777,-0.00416294,0.000867996,0.00121681,0.00125698,0.034777,0.000106659,0.000201111,0.0116961,-0.0218466,0.00136379,0.00195507,-0.00875
24,8,0,0,0,0,0,0,231.8,254,0,0,0,0,0,0,0,231.8,766,0,0.000769082,-0.000384674,0.000478096,0.0163955,-0.00553623,0.000448379,3.42559e-05,-0.00011631,0.0665534,0.00117477,-0.000447388,0.0158923,-0.0212744,0.000486412,0.000276604,-0.00943665
24,9,0,0,0,0,0,0,231.8,254,0,0,0,0,0,0,0,231.8,766,0,0.000196877,0.000530853,0.000630684,0.015747,-0.00183598,0.00056282,0.000682754,-0.000154457,-0.0530373,0.00109848,0.00096405,0.0152438,-0.0200537,0.000829735,0.00142101,-0.00859741
25,0,0,0,0,0,0,0,231.8,254,0,0,0,0,0,0,0,231.8,766,0,0.000654641,0.000454559,0.00108845,0.0166244,-0.00427738,0.000219498,0.00121681,0.000837364,0.0352729,0.000259247,0.00046814,0.014786,-0.0206259,0.000677147,0.000734367,-0.00924591
25,1,0,0,0,0,0,0,231.8,254,0,0,0,0,0,0,0,231.8,766,0,0.000463906,0.00018753,0.000592537,0.0164337,-0.00237003,0.000829849,0.000530167,7.44248e-05,0.0737632,-0.00016037,0.000506287,0.015816,-0.0203589,0.000867882,0.00187878,-0.00920776
25,2,0,0,0,0,0,0,231.8,254,0,0,0,0,0,0,0,231.8,766,0,0.000883522,0.000645294,0.000134773,0.0168914,0.00411495,0.000410232,0.00144569,0.00148586,-0.0608956,3.03648e-05,0.0022229,0.0160449,-0.0202826,0.00102047,0.00187878,-0.00833038
25,3,0,0,0,0,0,0,231.8,254,0,0,0,0,0,0,0,231.8,766,0,0.00160831,-0.000613556,0.000706978,0.0169677,0.00384792,0.00056282,0.000530167,3.62778e-05,-0.0291573,0.000984039,-0.000218506,0.0179522,-0.0202063,-0.000505409,0.00123028,-0.0093222
25,4,0,0,0,0,0,0,231.8,254,0,0,0,0,0,0,0,231.8,766,0,4.4289e-05,0.000416412,0.000478096,0.0157089,0.00411495,0.000143204,0.000720901,0.000303307,-0.00825279,-0.000122223,0.000353699,0.019974,-0.0202826,0.000486412,0.00058178,-0.00920776
25,5,0,0,0,0,0,0,231.8,254,0,0,0,0,0,0,0,231.8,766,0,0.000730935,0.000492706,0.000897713,0.0173874,0.00728115,0.000524673,0.000377579,0.000913658,0.0621665,0.000945892,0.000544433,0.0197451,-0.0205115,0.000410118,0.000963249,-0.00951294
25,6,0,0,0,0,0,0,231.8,254,0,0,0,0,0,0,0,231.8,766,0,-0.000375328,0.000454559,0.00017292,0.0157852,0.0054501,0.000105057,0.00102608,-0.000421486,-0.00363701,-0.000236664,0.00134552,0.0172656,-0.021694,0.000562706,0.00111584,-0.00867371
25,7,0,0,0,0,0,0,231.8,254,0,0,0,0,0,0,0,231.8,766,0,6.14207e-06,-0.000384674,0.000745125,0.0151367,0.00422939,0.000486526,0.00106422,-0.000154457,-0.0329339,-0.000694428,-0.000599976,0.0194781,-0.0210455,0.000486412,0.00069622,-0.0102759
25,8,0,0,0,0,0,0,231.8,254,0,0,0,0,0,0,0,231.8,766,0,0.00130314,-0.000232087,0.00055439,0.0162048,0.00567898,-4.75312e-05,0.0013694,0.000989952,0.0727332,0.00132736,0.000849609,0.0187152,-0.0199393,0.00113491,9.57493e-06,-0.00783447
25,9,0,0,0,0,0,0,231.8,254,0,0,0,0,0,0,0,231.8,766,0,0.000959816,0.000378265,0.00120289,0.0170059,0.0040768,0.000715408,0.000720901,0.000913658,-0.0104272,0.000869598,0.00107849,0.0191729,-0.0213889,0.00102047,0.00123028,-0.00787262
26,0,0,0,0,0,0,0,231.8,254,0,0,0,0,0,0,0,231.8,766,0,0.00115055,0.000607147,0.00135548,0.0166244,0.00548824,0.00094429,0.000453873,7.44248e-05,-0.0294244,-0.000236664,0.000391846,0.019707,-0.0210837,0.000410118,0.0015736,-0.0093985
26,1,0,0,0,0,0,0,231.8,254,0,0,0,0,0,0,0,231.8,766,0,-7.01519e-05,-0.000842438,0.000478096,0.0160522,0.00815853,-0.000429001,0.00098793,-0.000230751,0.0833381,0.000602569,0.000811462,0.0180285,-0.0207022,0.000867882,-0.000257454,-0.00924591
26,2,0,0,0,0,0,0,231.8,254,0,0,0,0,0,0,0,231.8,766,0,0.000463906,7.30893e-05,0.000668831,0.0157089,0.00884518,0.000753555,0.000263138,-7.81631e-05,-0.00504845,-0.000198517,0.000353699,0.0167697,-0.0228384,0.000333824,0.000467339,-0.00951294
26,3,0,0,0,0,0,0,231.8,254,0,0,0,0,0,0,0,231.8,766,0,0.000425759,3.49423e-05,0.000325508,0.0165863,0.0133465,0.000486526,0.000644607,3.62778e-05,-0.0332009,-0.000274811,0.00058258,0.0154345,-0.020397,0.000867882,0.00123028,-0.00821594
26,4,0,0,0,0,0,0,231.8,254,0,0,0,0,0,0,0,231.8,766,0,0.000730935,0.000645294,5.84793e-05,0.0151748,0.0109433,0.000333939,0.00098793,0.000646629,0.0882209,0.000106659,-0.000943298,0.0116198,-0.0210837,0.000448265,0.000963249,-0.00886444
26,5,0,0,0,0,0,0,231.8,254,0,0,0,0,0,0,0,231.8,766,0,0.000807228,0.000912323,0.00055439,0.0171585,0.0066708,0.000448379,0.000873489,0.000989952,0.000444718,0.000907745,0.000735168,0.0134127,-0.0205496,0.00124935,0.00168804,-0.00905518
26,6,0,0,0,0,0,0,231.8,254,0,0,0,0,0,0,0,231.8,766,0,0.000730935,0.000607147,0.000401802,0.0163955,0.00392422,0.000791702,0.000797195,0.000608482,-0.0623071,0.000411835,0.0016507,0.0115817,-0.0216177,0.000944176,0.000314751,-0.00833038
26,7,0,0,0,0,0,0,231.8,254,0,0,0,0,0,0,0,231.8,766,0,0.000807228,0.000378265,0.000211067,0.0156707,0.00331387,0.000715408,0.00060646,-0.000192604,-0.0123345,0.000526275,0.000239258,0.0135653,-0.0200919,-8.57925e-05,-6.6719e-05,-0.00813965
26,8,0,0,0,0,0,0,231.8,254,0,0,0,0,0,0,0,231.8,766,0,0.000692788,-0.000270233,0.000249214,0.0160522,0.00258907,0.00105873,0.000911636,0.00076107,0.0372565,-0.000312958,0.0010022,0.0138324,-0.0209692,0.000753441,0.00168804,-0.00970367
26,9,0,0,0,0,0,0,231.8,254,0,0,0,0,0,0,0,231.8,766,0,0.0005402,0.000759735,0.000668831,0.0157852,0.00239834,0.000372085,0.00049202,0.000646629,0.175425,0.000831451,-0.000180359,0.0135272,-0.0206641,0.000486412,0.00058178,-0.00890259
27,0,0,0,0,0,0,0,231.8,254,0,0,0,0,0,0,0,231.8,766,0,0.000730935,0.000797882,0.00127918,0.0178451,0.00419125,0.00124947,0.000530167,0.000417748,0.164629,0.00121292,0.00245178,0.0127261,-0.02013,0.00197414,0.00233654,-0.00825409
27,1,0,0,0,0,0,0,231.8,254,0,0,0,0,0,0,0,231.8,766,0,0.000463906,0.000340118,-0.000246697,0.0152511,0.00373348,-0.000161972,0.000186844,0.00121883,0.132433,0.000831451,-0.000714417,0.0100177,-0.0210837,-0.000467262,0.000162163,-0.0081015
27,2,0,0,0,0,0,0,231.8,254,0,0,0,0,0,0,0,231.8,766,0,0.000578347,0.00156082,0.00131733,0.0169296,0.00636562,0.000829849,0.000301285,-4.00161e-05,0.00906593,0.00117477,0.00123108,0.00799587,-0.0206259,0.00201229,0.00134472,-0.00871185
27,3,0,0,0,0,0,0,231.8,254,0,0,0,0,0,0,0,231.8,766,0,0.0011124,-0.000117646,0.000478096,0.0167007,0.00621304,2.87627e-05,0.000148697,0.000684776,-0.124754,0.000182953,0.00115479,0.0104373,-0.020397,0.000753441,0.000810661,-0.00882629
27,4,0,0,0,0,0,0,231.8,254,0,0,0,0,0,0,0,231.8,766,0,0.000959816,-7.94986e-05,0.000401802,0.0150604,0.00323757,0.00094429,3.42559e-05,0.000608482,-0.00771873,0.000297394,0.000429993,0.0103228,-0.0209311,-0.000352821,0.000124016,-0.00676636
27,5,0,0,0,0,0,0,231.8,254,0,0,0,0,0,0,0,231.8,766,0,0.000730935,0.000416412,0.0010503,0.0170059,0.0028561,0.00140205,0.000644607,0.000684776,0.0236381,0.000259247,0.000162964,0.0114291,-0.0191763,0.001936,0.00123028,-0.00722412
27,6,0,0,0,0,0,0,231.8,254,0,0,0,0,0,0,0,231.8,766,0,0.000883522,3.49423e-05,0.000287361,0.0166244,0.00232204,0.000600967,0.000873489,0.000951805,-0.103735,0.000640716,0.00138367,0.00906399,-0.0200919,0.00166897,0.00123028,-0.00901703
27,7,0,0,0,0,0,0,231.8,254,0,0,0,0,0,0,0,231.8,766,0,0.0011124,0.000836029,0.00055439,0.01651,0.000681725,0.000600967,0.00110237,0.00076107,-0.00211113,0.000411835,0.00111664,0.012955,-0.02116,0.00151638,0.00138287,-0.00730042
27,8,0,0,0,0,0,0,231.8,254,0,0,0,0,0,0,0,231.8,766,0,0.00145573,0.000263824,0.000516243,0.0162811,-0.00221745,-9.38424e-06,0.00106422,0.00133327,0.0399268,0.000678863,-2.77711e-05,0.0131076,-0.0216559,0.00109676,0.000925102,-0.0093985
27,9,0,0,0,0,0,0,231.8,254,0,0,0,0,0,0,0,231.8,766,0,-3.20049e-05,0.000645294,0.000401802,0.0155563,-0.00385777,0.000410232,0.00049202,0.000608482,-0.0961053,0.000907745,-0.000828858,0.014519,-0.0208548,0.00144009,9.57493e-06,-0.00829224
28,0,0,0,0,0,0,0,231.8,254,0,0,0,0,0,0,0,231.8,766,0,0.000997963,0.000836029,0.000745125,0.0162429,-0.00252262,-0.000429001,0.000415726,0.000188866,-0.0557839,0.00113663,-0.000104065,0.0179522,-0.0215796,0.000639,0.000314751,-0.00798706
28,1,0,0,0,0,0,0,231.8,254,0,0,0,0,0,0,0,231.8,766,0,0.000692788,-4.13517e-05,0.00146992,0.0164337,-0.00156895,0.000677261,-0.000194626,0.000608482,-0.0317132,0.000755157,0.00130737,0.0171511,-0.0203589,0.000867882,0.000543633,-0.00871185
28,2,0,0,0,0,0,0,231.8,254,0,0,0,0,0,0,0,231.8,766,0,0.000311318,0.00095047,0.000783272,0.0160141,0.000185814,0.00136391,0.00102608,0.000570335,0.0431693,0.00102219,-0.000371094,0.0176089,-0.0202063,0.00132565,0.00126843,-0.00833038
28,3,0,0,0,0,0,0,231.8,254,0,0,0,0,0,0,0,231.8,766,0,0.000959816,0.000263824,0.000783272,0.0162048,0.00327572,0.000677261,0.000263138,0.000722923,-0.0266396,6.85118e-05,0.000124817,0.0125735,-0.0217322,0.00109676,0.00161175,-0.00985626
28,4,0,0,0,0,0,0,231.8,254,0,0,0,0,0,0,0,231.8,766,0,0.000807228,0.000340118,-0.000361137,0.015747,0.00358089,0.000715408,-3.89107e-06,-0.000154457,-0.0442254,0.0002211,-0.000523682,0.0103228,-0.0211218,0.000371971,0.000886955,-0.00840668
28,5,0,0,0,0,0,0,231.8,254,0,0,0,0,0,0,0,231.8,766,0,0.0011887,0.000416412,0.00124104,0.0158233,0.00380978,0.000333939,0.00114052,0.000875511,0.0590766,0.00109848,0.000315552,0.0112384,-0.0204733,0.000715294,0.000238457,-0.00783447
28,6,0,0,0,0,0,0,231.8,254,0,0,0,0,0,0,0,231.8,766,0,0.00103611,0.00110306,0.000706978,0.0166244,0.0035046,0.00155464,0.00121681,0.0010281,-0.0169122,0.00128921,0.000124817,0.012192,-0.0203207,0.00147823,0.00168804,-0.00718597
28,7,0,0,0,0,0,0,231.8,254,0,0,0,0,0,0,0,231.8,766,0,0.000463906,0.0012175,0.000783272,0.0168533,0.00155911,-4.75312e-05,0.00125496,0.000150719,-0.0346886,0.0002211,4.85228e-05,0.00982693,-0.0213889,0.000448265,8.58689e-05,-0.00825409
28,8,0,0,0,0,0,0,231.8,254,0,0,0,0,0,0,0,231.8,766,0,0.000845375,0.000492706,0.000249214,0.0155563,0.00342831,0.000715408,-0.000385361,0.000951805,0.0788749,0.000297394,0.000697021,0.0169604,-0.0207785,0.000944176,8.58689e-05,-0.010314
28,9,0,0,0,0,0,0,231.8,254,0,0,0,0,0,0,0,231.8,766,0,0.000883522,0.00125565,0.000325508,0.0165481,0.0022076,0.00109688,0.00167458,0.00076107,-0.00642174,0.000449982,0.000773315,0.0201648,-0.0196722,0.00182156,0.000162163,-0.00768188
29,0,0,0,0,0,0,0,231.8,254,0,0,0,0,0,0,0,231.8,766,0,0.00015873,0.000607147,-5.59617e-05,0.0149459,0.0048016,0.00109688,-0.000461655,0.000150719,-0.0318276,0.000564422,-0.000256653,0.0132602,-0.0213507,-0.000123939,0.000619926,-0.00852112
29,1,0,0,0,0,0,0,231.8,254,0,0,0,0,0,0,0,231.8,766,0,-0.000108299,0.000797882,0.00093586,0.0161666,0.0132321,0.00109688,0.000339432,0.000913658,0.0888313,0.00109848,0.000773315,0.0120776,-0.0202063,0.000944176,0.000658073,-0.00878815
29,2,0,0,0,0,0,0,231.8,254,0,0,0,0,0,0,0,231.8,766,0,0.000387612,0.000874176,-1.78147e-05,0.0158996,0.0134228,0.000715408,0.000301285,0.000455895,0.00193245,0.000106659,0.000162964,0.0148623,-0.0216559,0.00117306,0.00130657,-0.00813965
29,3,0,0,0,0,0,0,231.8,254,0,0,0,0,0,0,0,231.8,766,0,0.000425759,0.00095047,0.000211067,0.0156707,0.0130413,0.000219498,-0.000194626,0.00076107,-0.0569283,0.000564422,-0.000828858,0.0185626,-0.0203589,0.000906029,0.00069622,-0.00913147
29,4,0,0,0,0,0,0,231.8,254,0,0,0,0,0,0,0,231.8,766,0,0.000463906,0.000912323,0.0010503,0.0171203,0.0110577,0.00124947,0.000949783,-4.00161e-05,-0.00790947,0.00163254,-0.00101959,0.0199359,-0.0202826,0.00117306,0.000276604,-0.00592712
29,5,0,0,0,0,0,0,231.8,254,0,0,0,0,0,0,0,231.8,766,0,0.000959816,0.000645294,0.000401802,0.0155944,0.0103329,0.000867996,0.000301285,0.00129513,0.0238288,0.000488129,0.000124817,0.0184863,-0.0213126,0.000982323,0.000543633,-0.00737671
29,6,0,0,0,0,0,0,231.8,254,0,0,0,0,0,0,0,231.8,766,0,0.000807228,0.0011412,0.000249214,0.017044,0.010104,0.000181351,0.00102608,0.000570335,0.0593055,0.00109848,-0.000104065,0.0155108,-0.0201682,0.000333824,-0.000753365,-0.00829224
29,7,0,0,0,0,0,0,231.8,254,0,0,0,0,0,0,0,231.8,766,0,0.000311318,0.00140823,0.00154621,0.0163955,0.00567898,0.00113502,0.000263138,-0.000345192,-0.0484216,0.00113663,0.00123108,0.0158541,-0.0212744,0.00147823,0.00164989,-0.00844482
29,8,0,0,0,0,0,0,231.8,254,0,0,0,0,0,0,0,231.8,766,0,0.000311318,-0.000956879,-0.000170403,0.0158615,0.00270351,0.000372085,0.000339432,0.000989952,0.0337852,-0.000122223,-0.000599976,0.0161212,-0.0216177,-0.000200233,0.000734367,-0.00852112
29,9,0,0,0,0,0,0,231.8,254,0,0,0,0,0,0,0,231.8,766,0,0.0005402,0.00133194,0.00127918,0.0160904,0.000948753,0.00151649,0.00114052,0.000150719,0.0579322,0.000869598,0.000239258,0.0143283,-0.0207022,0.00117306,0.000276604,-0.00840668
30,0,0,0,0,0,0,0,231.8,254,0,0,0,0,0,0,0,231.8,766,0,0.0011124,0.000454559,0.0016988,0.0173111,-0.00114933,0.000715408,0.00178902,0.00076107,-0.0441872,0.00102219,0.000658874,0.0157016,-0.0203589,0.00136379,0.00206951,-0.0075293
30,1,0,0,0,0,0,0,231.8,254,0,0,0,0,0,0,0,231.8,766,0,0.000349465,-7.94986e-05,-0.00032299,0.0150985,-0.00324741,6.69097e-05,0.000263138,-0.000154457,0.0408424,0.000869598,0.000315552,0.0139849,-0.0213126,0.000295677,-0.000219307,-0.00974182
30,2,0,0,0,0,0,0,231.8,254,0,0,0,0,0,0,0,231.8,766,0,0.000463906,0.000759735,-9.41086e-05,0.01548,-0.00435368,0.000181351,0.000263138,0.000875511,0.0719321,0.000678863,0.000162964,0.0120776,-0.0224951,0.00025753,9.57493e-06,-0.0081778
30,3,0,0,0,0,0,0,231.8,254,0,0,0,0,0,0,0,231.8,766,0,0.00107426,0.00117935,0.000592537,0.0165481,-0.00683323,0.000410232,0.00011055,0.000722923,-0.0480019,0.00071701,0.000315552,0.0120395,-0.0218085,0.000600853,-0.000448189,-0.00760559
30,4,0,0,0,0,0,0,231.8,254,0,0,0,0,0,0,0,231.8,766,0,-7.01519e-05,0.000797882,0.00093586,0.0167389,-0.00992313,0.00117317,0.00102608,-4.00161e-05,0.0416816,0.00262436,0.00046814,0.0129931,-0.0203207,0.000944176,-0.00056263,-0.00871185
30,5,0,0,0,0,0,0,231.8,254,0,0,0,0,0,0,0,231.8,766,0,0.000311318,0.0011412,0.000668831,0.0165481,-0.00893131,0.00117317,0.000873489,0.000684776,0.0785316,0.000526275,0.00046814,0.010361,-0.0205115,0.000371971,0.00138287,-0.00897888
30,6,0,0,0,0,0,0,231.8,254,0,0,0,0,0,0,0,231.8,766,0,0.000997963,0.000797882,2.03323e-05,0.0163192,-0.0114872,0.000448379,0.000415726,0.00076107,-0.0579964,0.000488129,1.03759e-05,0.00894955,-0.0208548,0.00140194,0.000314751,-0.00924591
30,7,0,0,0,0,0,0,231.8,254,0,0,0,0,0,0,0,231.8,766,0,-0.000299034,0.00144638,-1.78147e-05,0.0160522,-0.00969425,0.000906143,0.00049202,0.000989952,-0.0221001,0.000678863,-0.000332947,0.00894955,-0.0202063,0.000867882,0.00115398,-0.0081778
30,8,0,0,0,0,0,0,231.8,254,0,0,0,0,0,0,0,231.8,766,0,0.000616494,0.000683441,0.000630684,0.0163955,-0.00797764,0.00105873,0.000301285,0.000112572,-0.00302666,0.000602569,0.00046814,0.00711849,-0.02116,0.000333824,0.000429192,-0.00787262
30,9,0,0,0,0,0,0,231.8,254,0,0,0,0,0,0,0,231.8,766,0,0.000692788,0.000492706,0.0010503,0.0167007,-0.00744358,0.000867996,0.00117867,-0.000383339,0.0651038,0.000793304,0.000315552,0.00929287,-0.0200537,0.00113491,0.000886955,-0.00813965
31,0,0,0,0,0,0,0,231.8,254,0,0,0,0,0,0,0,231.8,766,0,0.00015873,0.00110306,0.000363655,0.0158996,-0.0034,0.000677261,0.000415726,0.00076107,-0.00165337,0.00205215,0.00119293,0.00921657,-0.0211981,0.000867882,-0.000143013,-0.0102759
31,1,0,0,0,0,0,0,231.8,254,0,0,0,0,0,0,0,231.8,766,0,0.000425759,0.00140823,0.00185139,0.0175399,-0.00267521,0.00140205,0.00110237,0.000379601,-0.0290047,0.00155624,0.00107849,0.0126879,-0.0204352,0.0012112,0.00130657,-0.00783447
31,2,0,0,0,0,0,0,231.8,254,0,0,0,0,0,0,0,231.8,766,0,8.2436e-05,0.000874176,-0.000933342,0.0158615,-0.0034763,0.000715408,0.00060646,0.000112572,0.0726951,0.000869598,-0.00132477,0.0142138,-0.0208929,0.000829735,0.000124016,-0.00825409
31,3,0,0,0,0,0,0,231.8,254,0,0,0,0,0,0,0,231.8,766,0,0.000502053,0.000759735,5.84793e-05,0.0158233,-0.00431553,0.000906143,0.000339432,0.000989952,-0.00577324,0.000488129,0.000849609,0.00883511,-0.0215414,0.000944176,0.000391045,-0.00913147
31,4,0,0,0,0,0,0,231.8,254,0,0,0,0,0,0,0,231.8,766,0,0.000654641,0.00156082,0.00127918,0.0168914,-0.000844154,0.000753555,0.00178902,0.000913658,-0.0258004,0.00224289,0.000735168,0.0133746,-0.0207022,0.00132565,0.000238457,-0.00741486
31,5,0,0,0,0,0,0,231.8,254,0,0,0,0,0,0,0,231.8,766,0,0.000387612,0.00095047,0.000897713,0.0160141,-0.000233803,0.000829849,-0.000118332,-0.000307045,0.085398,0.000335541,0.000544433,0.0150531,-0.0212363,-0.000123939,0.00069622,-0.00871185
31,6,0,0,0,0,0,0,231.8,254,0,0,0,0,0,0,0,231.8,766,0,0.00107426,0.0011412,0.000401802,0.0160522,0.00224575,0.000486526,0.000415726,0.00026516,-0.00237816,0.000564422,0.000658874,0.0149768,-0.0215033,0.00025753,-0.0015163,-0.00730042
31,7,0,0,0,0,0,0,231.8,254,0,0,0,0,0,0,0,231.8,766,0,0.000692788,0.00110306,0.000897713,0.0171585,0.00659451,0.00136391,-0.000156479,0.000417748,-0.0307214,0.00163254,0.000315552,0.0176089,-0.0210455,0.00124935,0.00130657,-0.00966553
31,8,0,0,0,0,0,0,231.8,254,0,0,0,0,0,0,0,231.8,766,0,0.00122685,0.000263824,0.00017292,0.0158996,0.00911221,-0.000123825,0.000568314,0.00106625,0.0893653,0.000182953,0.00111664,0.0197833,-0.0206259,0.000181236,0.00111584,-0.00905518
31,9,0,0,0,0,0,0,231.8,254,0,0,0,0,0,0,0,231.8,766,0,0.0011887,-0.000155793,0.000668831,0.0159759,0.012164,0.0014402,0.00098793,0.000303307,0.00078804,0.000640716,0.000201111,0.0208514,-0.0206259,0.0012875,0.00058178,-0.00844482
32,0,0,0,0,0,0,0,231.8,254,0,0,0,0,0,0,0,231.8,766,0,0.000387612,0.000912323,-9.41086e-05,0.01651,0.0163601,0.00121132,0.000759048,0.000951805,-0.0601327,0.000297394,0.000735168,0.0199359,-0.02013,0.00109676,0.00115398,-0.00875
32,1,0,0,0,0,0,0,231.8,254,0,0,0,0,0,0,0,231.8,766,0,0.000311318,-0.000117646,0.00124104,0.01651,0.0151013,0.000524673,0.00011055,0.000989952,-0.011686,0.000640716,0.00187958,0.0214999,-0.0217322,0.00124935,0.000925102,-0.00890259
32,2,0,0,0,0,0,0,231.8,254,0,0,0,0,0,0,0,231.8,766,0,0.000387612,0.000530853,0.000363655,0.0162429,0.018153,0.00155464,0.000873489,0.000989952,0.0375999,0.00128921,-0.000142212,0.0211566,-0.0202063,0.000448265,0.00069622,-0.00791077
32,3,0,0,0,0,0,0,231.8,254,0,0,0,0,0,0,0,231.8,766,0,0.000502053,0.000492706,0.00017292,0.0160904,0.0171231,0.000333939,0.000759048,7.44248e-05,0.17634,0.000297394,-0.0002948,0.0203555,-0.0224951,0.000753441,0.00191692,-0.00844482
32,4,0,0,0,0,0,0,231.8,254,0,0,0,0,0,0,0,231.8,766,0,0.0011887,0.000759735,0.00116474,0.0175399,0.0197552,0.00121132,0.00098793,0.000570335,0.164362,0.00167068,0.00096405,0.0197451,-0.0195959,0.00220303,0.000352898,-0.00890259
32,5,0,0,0,0,0,0,231.8,254,0,0,0,0,0,0,0,231.8,766,0,-0.000909385,0.000111236,-0.000284843,0.0161285,0.0209378,0.000600967,-4.2038e-05,0.000532188,0.131937,0.000373688,0.000315552,0.01944,-0.0220755,0.000410118,0.00142101,-0.00863556
32,6,0,0,0,0,0,0,231.8,254,0,0,0,0,0,0,0,231.8,766,0,0.000692788,0.000378265,-0.000475578,0.0162429,0.0183056,0.000219498,0.00102608,0.000455895,0.00876076,0.000869598,-0.000599976,0.0179141,-0.0217703,0.000181236,-0.000753365,-0.00833038
32,7,0,0,0,0,0,0,231.8,254,0,0,0,0,0,0,0,231.8,766,0,6.14207e-06,0.000301971,0.00146992,0.0166244,0.0184582,0.00151649,0.00121681,0.000837364,-0.122503,0.00128921,0.000735168,0.0174563,-0.0207404,0.000829735,0.00145916,-0.00821594
32,8,0,0,0,0,0,0,231.8,254,0,0,0,0,0,0,0,231.8,766,0,0.000692788,0.0011412,0.00093586,0.0168151,0.0186871,0.000867996,0.000263138,-4.00161e-05,-0.00764244,0.00109848,0.00161255,0.0171511,-0.0204733,0.0012875,-0.000333748,-0.00867371
32,9,0,0,0,0,0,0,231.8,254,0,0,0,0,0,0,0,231.8,766,0,0.000196877,3.49423e-05,0.000974007,0.0171203,0.0152157,0.000143204,0.00121681,-0.000154457,0.0216926,0.000106659,0.00046814,0.014519,-0.0206641,0.000104942,0.000772514,-0.0099707
33,0,0,0,0,0,0,0,231.8,254,0,0,0,0,0,0,0,231.8,766,0,0.000807228,0.000874176,0.000630684,0.0158615,0.0139569,0.000906143,0.000301285,-0.000154457,-0.101598,-4.59291e-05,0.000887756,0.0130313,-0.0209311,0.000600853,0.00069622,-0.00882629
33,1,0,0,0,0,0,0,231.8,254,0,0,0,0,0,0,0,231.8,766,0,8.2436e-05,0.0012175,0.000859566,0.0165863,0.0112103,0.00056282,0.00133125,0.000532188,-0.00211113,0.00205215,0.000773315,0.0139468,-0.019863,0.00212673,0.000963249,-0.0100851
33,2,0,0,0,0,0,0,231.8,254,0,0,0,0,0,0,0,231.8,766,0,-0.000337181,7.30893e-05,0.000783272,0.0163574,0.00903591,2.87627e-05,0.000568314,-0.00011631,0.0396598,0.00071701,0.000239258,0.012192,-0.0210074,0.000600853,0.000276604,-0.00886444
33,3,0,0,0,0,0,0,231.8,254,0,0,0,0,0,0,0,231.8,766,0,0.000807228,0.00117935,0.000439949,0.0152511,0.00827297,6.69097e-05,0.00060646,-0.000345192,-0.0958001,0.000297394,0.0010022,0.0112765,-0.0206641,0.000448265,0.000848808,-0.00966553
33,4,0,0,0,0,0,0,231.8,254,0,0,0,0,0,0,0,231.8,766,0,0.0005402,3.49423e-05,9.66262e-05,0.0160141,0.00636562,0.000448379,0.000453873,0.000913658,-0.0559747,0.000106659,0.00058258,0.0113147,-0.0208167,-8.57925e-05,0.00161175,-0.0101996
33,5,0,0,0,0,0,0,231.8,254,0,0,0,0,0,0,0,231.8,766,0,0.000196877,0.00018753,0.000592537,0.0162429,0.00342831,0.000791702,0.000720901,0.000112572,-0.0308358,0.000373688,0.00119293,0.011391,-0.0205496,0.00025753,0.00142101,-0.00901703
33,6,0,0,0,0,0,0,231.8,254,0,0,0,0,0,0,0,231.8,766,0,0.000730935,0.000340118,0.000592537,0.0168914,0.00323757,0.00124947,0.00102608,0.000379601,0.0419105,0.000182953,0.000124817,0.0118869,-0.0204352,0.00170712,0.000925102,-0.00787262
33,7,0,0,0,0,0,0,231.8,254,0,0,0,0,0,0,0,231.8,766,0,0.000235024,0.000530853,0.000859566,0.0161285,0.00171169,0.000906143,0.000720901,0.000303307,-0.0268685,0.00102219,0.000239258,0.0131839,-0.0200156,0.00113491,0.00119213,-0.00852112
33,8,0,0,0,0,0,0,231.8,254,0,0,0,0,0,0,0,231.8,766,0,0.000349465,0.00095047,0.00112659,0.0166626,0.000872459,-0.000200119,0.00060646,0.000684776,-0.0439584,0.00132736,0.000811462,0.0107043,-0.0221136,0.000982323,0.00172619,-0.00871185
33,9,0,0,0,0,0,0,231.8,254,0,0,0,0,0,0,0,231.8,766,0,0.00168461,0.00117935,0.000897713,0.017807,0.0035046,0.00140205,-4.2038e-05,0.0010281,0.0586189,0.000793304,0.00115479,0.0108187,-0.0200537,0.000715294,0.00058178,-0.00714783
34,0,0,0,0,0,0,0,231.8,254,0,0,0,0,0,0,0,231.8,766,0,-0.00102383,0.000797882,0.000363655,0.0158615,0.00205502,0.000257645,0.0013694,-0.000841103,-0.0179421,0.000984039,0.00058258,0.014252,-0.0210455,-8.57925e-05,0.000238457,-0.00882629
34,1,0,0,0,0,0,0,231.8,254,0,0,0,0,0,0,0,231.8,766,0,0.000235024,-3.20468e-06,0.000745125,0.0155563,0.00133022,0.00056282,0.00098793,0.000303307,-0.0349557,0.000869598,0.000544433,0.0145953,-0.0208548,0.00124935,0.00199322,-0.0093222
34,2,0,0,0,0,0,0,231.8,254,0,0,0,0,0,0,0,231.8,766,0,0.00122685,0.000263824,0.00055439,0.0174255,0.000605431,0.000829849,0.00011055,0.000379601,0.0788367,0.000907745,0.00096405,0.00925472,-0.0210455,0.000639,0.00130657,-0.00871185
34,3,0,0,0,0,0,0,231.8,254,0,0,0,0,0,0,0,231.8,766,0,0.000959816,0.00175156,-0.000513725,0.0166244,-0.000653419,0.000829849,0.00060646,0.000417748,-0.00737541,0.000793304,0.00111664,0.00929287,-0.0219611,0.000944176,0.00145916,-0.00905518
34,4,0,0,0,0,0,0,231.8,254,0,0,0,0,0,0,0,231.8,766,0,0.000692788,0.00095047,0.00093586,0.0165863,-0.00442997,0.000753555,0.00060646,0.00076107,-0.0317513,0.00102219,8.66698e-05,0.011391,-0.0202444,0.00117306,0.00111584,-0.00825409
34,5,0,0,0,0,0,0,231.8,254,0,0,0,0,0,0,0,231.8,766,0,0.000463906,0.000111236,0.00162251,0.0161666,-0.00607029,0.000639114,0.000873489,-4.00161e-05,0.0886787,0.0002211,0.00046814,0.0133746,-0.0213507,0.000906029,0.000848808,-0.00813965
34,6,0,0,0,0,0,0,231.8,254,0,0,0,0,0,0,0,231.8,766,0,0.000692788,0.000530853,0.000363655,0.0160141,-0.00587955,6.69097e-05,0.000339432,0.000570335,0.00113136,-7.78213e-06,0.000697021,0.0128405,-0.0209692,-4.76455e-05,0.000619926,-0.00928406
34,7,0,0,0,0,0,0,231.8,254,0,0,0,0,0,0,0,231.8,766,0,0.000654641,0.000530853,0.000439949,0.0161285,-0.00587955,0.00117317,0.00220863,0.000684776,-0.0574242,0.000144806,0.00046814,0.0113528,-0.0203589,0.0018597,0.00176434,-0.00875
34,8,0,0,0,0,0,0,231.8,254,0,0,0,0,0,0,0,231.8,766,0,0.000578347,0.00171341,0.00131733,0.0155944,-0.00782505,0.000906143,0.000797195,0.000837364,-0.00737541,0.000793304,0.000697021,0.0128024,-0.0208167,0.00144009,0.00111584,-0.00852112
34,9,0,0,0,0,0,0,231.8,254,0,0,0,0,0,0,0,231.8,766,0,0.0005402,0.000492706,0.000706978,0.0166244,-0.00957981,0.000982437,0.000415726,0.000303307,0.0226463,0.000984039,0.000811462,0.0136035,-0.0208167,0.000600853,0.00119213,-0.00977997
35,0,0,0,0,0,0,0,231.8,254,0,0,0,0,0,0,0,231.8,766,0,8.2436e-05,-0.000117646,0.000668831,0.0162048,-0.00675694,0.000105057,0.000911636,-1.86916e-06,0.0593055,-8.40761e-05,0.00142181,0.0143283,-0.0208167,0.000295677,0.000848808,-0.00844482
35,1,0,0,0,0,0,0,231.8,254,0,0,0,0,0,0,0,231.8,766,0,0.000845375,0.000454559,0.000897713,0.0163192,-0.00706211,0.000524673,0.00125496,0.000227013,-0.0481927,0.000945892,1.03759e-05,0.0164645,-0.0198248,0.000829735,-0.000143013,-0.00989441
35,2,0,0,0,0,0,0,231.8,254,0,0,0,0,0,0,0,231.8,766,0,0.0005402,0.000340118,0.000325508,0.0160141,-0.00767246,0.000791702,0.000720901,0.000532188,0.0342429,-0.000503693,0.00115479,0.0133364,-0.0207785,0.00155453,0.00149731,-0.00966553
35,3,0,0,0,0,0,0,231.8,254,0,0,0,0,0,0,0,231.8,766,0,0.00122685,0.000530853,0.00017292,0.0162429,-0.00435368,0.000410232,0.000301285,0.000837364,0.0572456,0.000488129,0.000162964,0.0148623,-0.0217322,-9.49856e-06,0.000810661,-0.00875
35,4,0,0,0,0,0,0,231.8,254,0,0,0,0,0,0,0,231.8,766,0,0.000769082,0.000607147,0.000821419,0.0157852,-0.00149265,0.000181351,0.000720901,-1.86916e-06,-0.0435387,0.000678863,0.00107849,0.0170749,-0.0205878,0.000486412,0.000734367,-0.0101614
35,5,0,0,0,0,0,0,231.8,254,0,0,0,0,0,0,0,231.8,766,0,0.00122685,0.00110306,0.00127918,0.0171585,-0.00244633,0.000600967,0.0013694,0.000417748,0.0414527,0.000373688,0.000811462,0.0166171,-0.0196722,0.00109676,0.00107769,-0.00855927
35,6,0,0,0,0,0,0,231.8,254,0,0,0,0,0,0,0,231.8,766,0,0.000807228,0.000149383,5.84793e-05,0.0149841,-0.0034763,-9.38424e-06,-0.000881271,0.000455895,0.0720466,-4.59291e-05,-0.0002948,0.0208133,-0.0217703,0.00025753,0.000886955,-0.00936035
35,7,0,0,0,0,0,0,231.8,254,0,0,0,0,0,0,0,231.8,766,0,0.00115055,0.000797882,0.000668831,0.0160522,-8.12148e-05,0.00151649,0.00098793,0.0010281,-0.0473534,0.00071701,0.00142181,0.0223391,-0.0206641,0.00151638,0.000886955,-0.00993256
35,8,0,0,0,0,0,0,231.8,254,0,0,0,0,0,0,0,231.8,766,0,0.0005402,0.000836029,0.00112659,0.0155182,0.00323757,0.00113502,0.000759048,0.000227013,0.0421394,-0.00054184,-0.000180359,0.0189822,-0.0208548,0.000677147,0.00069622,-0.00897888
35,9,0,0,0,0,0,0,231.8,254,0,0,0,0,0,0,0,231.8,766,0,0.000387612,0.000797882,0.000630684,0.0161285,0.00426754,0.000639114,0.000568314,0.00026516,0.0781882,0.00113663,-0.000104065,0.0219577,-0.0218466,0.00109676,0.00119213,-0.00920776
36,0,0,0,0,0,0,0,231.8,254,0,0,0,0,0,0,0,231.8,766,0,0.000654641,0.00159897,0.000745125,0.0172729,0.00903591,0.00094429,0.000720901,0.000303307,-0.055288,0.00117477,0.000925903,0.0209658,-0.0197104,0.000791588,0.00069622,-0.00836853
36,1,0,0,0,0,0,0,231.8,254,0,0,0,0,0,0,0,231.8,766,0,0.00137943,0.000149383,-0.000666313,0.0161285,0.0135373,-0.000200119,7.24029e-05,0.000379601,-0.0227105,-0.000198517,-0.000180359,0.0198596,-0.0212744,0.000181236,0.00058178,-0.00962738
36,2,0,0,0,0,0,0,231.8,254,0,0,0,0,0,0,0,231.8,766,0,-0.000337181,0.000340118,0.000478096,0.01651,0.0122021,0.00102058,0.000377579,0.000303307,-0.00161522,0.000678863,0.00134552,0.0185626,-0.0202063,0.000906029,0.000810661,-0.00867371
36,3,0,0,0,0,0,0,231.8,254,0,0,0,0,0,0,0,231.8,766,0,0.000463906,0.000988617,0.000516243,0.0162048,0.0142239,0.000410232,0.000720901,0.000837364,0.0676597,0.000488129,0.000391846,0.0162356,-0.0196341,0.000333824,0.00069622,-0.00905518
36,4,0,0,0,0,0,0,231.8,254,0,0,0,0,0,0,0,231.8,766,0,0.000883522,-0.000117646,0.000363655,0.0161285,0.0143383,0.000181351,0.00117867,3.62778e-05,-0.00348442,0.000297394,0.00111664,0.0186007,-0.0198248,0.00155453,0.0015736,-0.00855927
36,5,0,0,0,0,0,0,231.8,254,0,0,0,0,0,0,0,231.8,766,0,0.0005402,-0.000422821,0.000325508,0.0158233,0.0130032,0.000372085,0.00098793,7.44248e-05,-0.0277077,6.85118e-05,0.00046814,0.0190585,-0.0211218,0.000753441,-0.00018116,-0.00878815
36,6,0,0,0,0,0,0,231.8,254,0,0,0,0,0,0,0,231.8,766,0,0.00115055,0.00159897,0.00101215,0.0164718,0.0139569,0.00216499,0.000759048,0.0010281,0.0733817,0.000755157,-0.00117218,0.0194781,-0.0199011,0.000715294,0.00103954,-0.0081015
36,7,0,0,0,0,0,0,231.8,254,0,0,0,0,0,0,0,231.8,766,0,0.000311318,0.000340118,0.000363655,0.0163574,0.0122403,0.000219498,0.000568314,-0.000154457,-0.00626915,0.000793304,0.000124817,0.0175326,-0.0213126,0.000906029,0.000276604,-0.00863556
36,8,0,0,0,0,0,0,231.8,254,0,0,0,0,0,0,0,231.8,766,0,0.000273171,0.000149383,0.000897713,0.0156707,0.0105999,0.00056282,0.000530167,-0.000230751,-0.0258385,0.000297394,0.000429993,0.0145572,-0.0209692,-0.00023838,0.000162163,-0.00733856
36,9,0,0,0,0,0,0,231.8,254,0,0,0,0,0,0,0,231.8,766,0,0.00153202,0.00140823,0.000592537,0.0172729,0.0120114,0.000982437,0.00114052,0.0010281,0.0856651,0.00071701,0.00142181,0.0132602,-0.0195959,0.00205044,0.00134472,-0.00829224
37,0,0,0,0,0,0,0,231.8,254,0,0,0,0,0,0,0,231.8,766,0,0.000387612,0.00133194,0.000783272,0.0163574,0.00827297,0.000715408,0.000568314,0.000303307,-0.00188225,0.000373688,-0.000104065,0.00990322,-0.0206641,0.0012875,0.000124016,-0.0081778
37,1,0,0,0,0,0,0,231.8,254,0,0,0,0,0,0,0,231.8,766,0,0.0005402,0.00140823,0.0016988,0.0162811,0.00998959,0.000906143,-0.000156479,0.00106625,-0.030378,0.00167068,0.0016507,0.011658,-0.0209692,0.00025753,0.000810661,-0.0081015
37,2,0,0,0,0,0,0,231.8,254,0,0,0,0,0,0,0,231.8,766,0,0.00145573,0.00102676,0.000859566,0.0171585,0.012431,0.000448379,0.00114052,0.00076107,0.0899375,0.000678863,0.000811462,0.00879696,-0.0207404,0.000753441,4.77219e-05,-0.00791077
37,3,0,0,0,0,0,0,231.8,254,0,0,0,0,0,0,0,231.8,766,0,0.000235024,0.00095047,0.000745125,0.0145645,0.00819668,0.000181351,7.24029e-05,0.000494041,0.00128395,0.000526275,-0.000714417,0.00749996,-0.0202444,0.000486412,-0.000219307,-0.00920776
37,4,0,0,0,0,0,0,231.8,254,0,0,0,0,0,0,0,231.8,766,0,-7.01519e-05,0.00129379,5.84793e-05,0.0168151,0.0113629,0.000867996,0.000682754,0.000150719,-0.059179,0.000259247,0.000391846,0.0094836,-0.0205496,0.000410118,0.00126843,-0.00970367
37,5,0,0,0,0,0,0,231.8,254,0,0,0,0,0,0,0,231.8,766,0,-3.20049e-05,0.000759735,0.000478096,0.0162048,0.0112866,0.000791702,0.000377579,0.000112572,-0.0110375,0.000831451,-0.0002948,0.012192,-0.0203207,-0.000200233,0.000429192,-0.00825409
37,6,0,0,0,0,0,0,231.8,254,0,0,0,0,0,0,0,231.8,766,0,0.00168461,0.00125565,0.00124104,0.0158233,0.00869259,0.000486526,0.000186844,0.000341454,0.020243,0.00117477,0.000773315,0.0172274,-0.0203589,0.000600853,-0.00105854,-0.00718597
37,7,0,0,0,0,0,0,231.8,254,0,0,0,0,0,0,0,231.8,766,0,0.000578347,0.000530853,0.000821419,0.0167389,0.0102948,-0.000505295,0.00114052,0.000532188,0.0608695,0.0014418,0.00119293,0.0131839,-0.0215414,0.00102047,0.00134472,-0.00859741
37,8,0,0,0,0,0,0,231.8,254,0,0,0,0,0,0,0,231.8,766,0,0.000235024,0.000645294,-0.00032299,0.0160904,0.0107907,0.00094429,-4.2038e-05,0.000646629,-0.0528848,0.00109848,-0.000142212,0.0137942,-0.0202826,0.00025753,0.00164989,-0.00802521
37,9,0,0,0,0,0,0,231.8,254,0,0,0,0,0,0,0,231.8,766,0,0.00015873,0.00106491,0.000249214,0.0163574,0.00926479,0.000639114,0.00098793,-7.81631e-05,0.0288642,0.000640716,-0.000218506,0.011925,-0.0216177,0.000867882,0.00138287,-0.00977997
38,0,0,0,0,0,0,0,231.8,254,0,0,0,0,0,0,0,231.8,766,0,0.000921669,0.000454559,0.00139362,0.0170822,0.009837,0.00140205,0.00060646,0.000913658,0.053202,0.00128921,0.00096405,0.0145572,-0.0191763,0.00182156,0.000658073,-0.00684265
38,1,0,0,0,0,0,0,231.8,254,0,0,0,0,0,0,0,231.8,766,0,-0.000299034,0.00182785,0.000211067,0.0167007,0.00911221,0.0014402,0.000873489,-0.000154457,-0.0514733,0.00102219,0.0010022,0.0123065,-0.0202826,0.000906029,0.000810661,-0.00920776
38,2,0,0,0,0,0,0,231.8,254,0,0,0,0,0,0,0,231.8,766,0,0.000425759,0.000416412,-0.00070446,0.0162811,0.00979885,2.87627e-05,7.24029e-05,0.000417748,0.0342429,0.000640716,-0.000752564,0.0124209,-0.0211218,0.000562706,-2.8572e-05,-0.00920776
38,3,0,0,0,0,0,0,231.8,254,0,0,0,0,0,0,0,231.8,766,0,-7.01519e-05,0.00140823,0.000897713,0.0162048,0.00979885,0.00094429,0.000835342,0.000341454,0.0665153,0.00167068,0.00142181,0.0134509,-0.0200537,0.000829735,0.0010014,-0.00852112
38,4,0,0,0,0,0,0,231.8,254,0,0,0,0,0,0,0,231.8,766,0,0.000654641,0.00156082,-9.41086e-05,0.0167389,0.00937923,0.00094429,0.000759048,-7.81631e-05,-0.0545632,0.000755157,-6.59181e-05,0.0143283,-0.0207785,0.00113491,0.000314751,-0.00955109
38,5,0,0,0,0,0,0,231.8,254,0,0,0,0,0,0,0,231.8,766,0,-0.000108299,-7.94986e-05,0.000974007,0.0160522,0.00831112,0.000982437,0.000682754,-0.000345192,0.0349296,0.00163254,0.000735168,0.0153201,-0.020397,0.000944176,4.77219e-05,-0.00947479
38,6,0,0,0,0,0,0,231.8,254,0,0,0,0,0,0,0,231.8,766,0,0.000425759,0.00144638,0.000897713,0.0163955,0.00720486,0.00105873,0.000720901,0.00144772,0.0741447,0.000297394,0.00111664,0.0165408,-0.0208548,0.000982323,0.00069622,-0.00829224
38,7,0,0,0,0,0,0,231.8,254,0,0,0,0,0,0,0,231.8,766,0,0.000235024,0.000797882,0.000668831,0.0159759,0.00529751,0.000600967,0.000301285,7.44248e-05,-0.0624978,0.00117477,-0.000104065,0.0174563,-0.02013,0.00109676,0.000238457,-0.00977997
38,8,0,0,0,0,0,0,231.8,254,0,0,0,0,0,0,0,231.8,766,0,-7.01519e-05,0.000378265,0.00093586,0.0160141,0.00445827,0.0014402,-0.000156479,0.000875511,-0.0280511,0.000335541,8.66698e-05,0.0155108,-0.0213126,-0.000505409,0.00145916,-0.00840668
38,9,0,0,0,0,0,0,231.8,254,0,0,0,0,0,0,0,231.8,766,0,-0.000108299,0.00156082,0.000706978,0.0166626,0.00335201,0.00094429,0.00011055,0.000646629,-0.00504845,0.00132736,0.00142181,0.0150912,-0.0201682,0.00155453,0.000162163,-0.00901703
39,0,0,0,0,0,0,0,231.8,254,0,0,0,0,0,0,0,231.8,766,0,0.00115055,0.000912323,0.000249214,0.0169296,0.00121578,0.00163094,0.000873489,0.000951805,0.113932,0.00147995,0.000506287,0.0136035,-0.019863,0.00151638,0.00115398,-0.00981812
39,1,0,0,0,0,0,0,231.8,254,0,0,0,0,0,0,0,231.8,766,0,0.000387612,0.000759735,0.000783272,0.017044,-0.00126377,0.00113502,0.000759048,0.00152401,0.186716,0.00117477,0.000506287,0.015816,-0.0207404,0.0012112,0.0015736,-0.00821594
39,2,0,0,0,0,0,0,231.8,254,0,0,0,0,0,0,0,231.8,766,0,0.000654641,0.000492706,0.000974007,0.0164718,-0.00156895,0.000219498,0.00060646,3.62778e-05,0.146624,0.00117477,-0.000447388,0.0156253,-0.0206259,-0.00023838,0.000429192,-0.00676636
39,3,0,0,0,0,0,0,231.8,254,0,0,0,0,0,0,0,231.8,766,0,6.14207e-06,0.00106491,-9.41086e-05,0.0150222,-0.000195656,0.000906143,-0.000461655,-0.000192604,0.0925315,0.000411835,-0.00128662,0.014252,-0.0207404,-0.000200233,9.57493e-06,-0.00733856
39,4,0,0,0,0,0,0,231.8,254,0,0,0,0,0,0,0,231.8,766,0,0.000692788,0.00102676,0.00143177,0.0166626,0.00262722,0.000677261,0.00156013,0.00110439,-0.0852334,0.00128921,0.00134552,0.0173037,-0.0196722,0.00155453,0.00119213,-0.00897888
39,5,0,0,0,0,0,0,231.8,254,0,0,0,0,0,0,0,231.8,766,0,0.000807228,0.000607147,0.000401802,0.0164718,-0.000577125,0.000524673,0.00011055,-4.00161e-05,-0.0847756,0.00071701,0.000620727,0.013489,-0.0202063,0.000448265,0.00149731,-0.00936035
39,6,0,0,0,0,0,0,231.8,254,0,0,0,0,0,0,0,231.8,766,0,-0.000146446,0.000454559,-0.000132256,0.0161666,-0.00477329,0.000639114,-0.000194626,0.000455895,0.0417197,0.00071701,0.000124817,0.0143664,-0.0215796,0.000715294,0.00020031,-0.00791077
39,7,0,0,0,0,0,0,231.8,254,0,0,0,0,0,0,0,231.8,766,0,0.000349465,0.00217117,0.000706978,0.0162048,-0.00748173,0.000715408,0.0013694,0.000799217,-0.0526559,0.00140366,-0.000256653,0.0146716,-0.0207404,0.000867882,0.00130657,-0.00875
39,8,0,0,0,0,0,0,231.8,254,0,0,0,0,0,0,0,231.8,766,0,0.000502053,0.000416412,0.000745125,0.017044,-0.00702396,0.00140205,-4.2038e-05,-1.86916e-06,-0.0758492,0.000640716,-0.000485535,0.0141375,-0.0216559,0.00151638,0.00123028,-0.00791077
39,9,0,0,0,0,0,0,231.8,254,0,0,0,0,0,0,0,231.8,766,0,0.00122685,7.30893e-05,0.000516243,0.0168914,-0.00614658,0.000982437,0.000720901,0.00114254,0.0538886,0.000678863,0.00107849,0.0155108,-0.0204352,0.00105862,0.000352898,-0.00749115
40,0,0,0,0,0,0,0,231.8,254,0,0,0,0,0,0,0,231.8,766,0,-0.000108299,0.000111236,0.00101215,0.016777,-0.00668064,0.00094429,-4.2038e-05,7.44248e-05,-0.0349557,0.000411835,-0.000104065,0.0156634,-0.0202063,0.000906029,0.000925102,-0.00863556
40,1,0,0,0,0,0,0,231.8,254,0,0,0,0,0,0,0,231.8,766,0,-0.000108299,0.00106491,-0.00020855,0.01651,-0.00885502,0.000410232,0.000644607,0.000646629,-0.0928246,-0.000465546,0.00058258,0.0159686,-0.0207785,0.00151638,0.00233654,-0.00859741
40,2,0,0,0,0,0,0,231.8,254,0,0,0,0,0,0,0,231.8,766,0,8.2436e-05,0.000225677,0.000363655,0.0162811,-0.00854984,0.00105873,0.000682754,0.00076107,-0.0389611,0.00140366,-0.000104065,0.0125354,-0.0207022,0.00117306,0.00138287,-0.00878815
40,3,0,0,0,0,0,0,231.8,254,0,0,0,0,0,0,0,231.8,766,0,-0.000108299,0.00095047,0.000363655,0.0168533,-0.00542179,0.000410232,-0.000232773,0.000303307,-0.000661545,0.000335541,0.000620727,0.0142901,-0.0209311,-0.000657997,-0.000219307,-0.00855927
40,4,0,0,0,0,0,0,231.8,254,0,0,0,0,0,0,0,231.8,766,0,0.000807228,0.000912323,0.000706978,0.0160904,-0.00233189,0.00056282,0.000568314,-4.00161e-05,0.0358451,0.000678863,-0.000409241,0.0132983,-0.0215033,0.00105862,0.000391045,-0.00962738
40,5,0,0,0,0,0,0,231.8,254,0,0,0,0,0,0,0,231.8,766,0,-0.000337181,0.000645294,0.00154621,0.0172729,-0.00164524,0.00166908,0.00114052,0.000837364,-0.0707757,0.00178513,0.000697021,0.0139468,-0.0204733,0.000677147,0.00168804,-0.00840668
40,6,0,0,0,0,0,0,231.8,254,0,0,0,0,0,0,0,231.8,766,0,0.000425759,0.0011412,0.000401802,0.0171203,-0.00103489,0.00124947,-0.000118332,-0.000650368,0.0170005,-0.000198517,0.000391846,0.0139849,-0.0206641,0.000639,0.00130657,-0.00791077
40,7,0,0,0,0,0,0,231.8,254,0,0,0,0,0,0,0,231.8,766,0,0.0005402,0.000454559,0.000363655,0.0165481,-0.000577125,0.00109688,0.00133125,0.000494041,0.0414909,0.00170883,0.000239258,0.0118869,-0.0201682,0.000906029,9.57493e-06,-0.00863556
40,8,0,0,0,0,0,0,231.8,254,0,0,0,0,0,0,0,231.8,766,0,0.000311318,0.000645294,0.000401802,0.0168914,-0.00195042,0.00102058,-8.0185e-05,0.000188866,-0.0573479,0.0002211,8.66698e-05,0.0139468,-0.0205496,0.00105862,4.77219e-05,-0.00909332
40,9,0,0,0,0,0,0,231.8,254,0,0,0,0,0,0,0,231.8,766,0,0.000997963,0.000912323,0.00143177,0.0159759,-0.00221745,0.000829849,0.000415726,0.000799217,0.0303901,0.000106659,0.000658874,0.0111621,-0.0209311,0.00140194,0.000810661,-0.00920776
41,0,0,0,0,0,0,0,231.8,254,0,0,0,0,0,0,0,231.8,766,0,4.4289e-05,-0.000537262,0.000363655,0.0146408,-0.0052692,2.87627e-05,-0.000118332,-0.000917397,0.0625098,0.000182953,-2.77711e-05,0.00753811,-0.0210455,-0.000467262,-0.000600777,-0.00859741
41,1,0,0,0,0,0,0,231.8,254,0,0,0,0,0,0,0,231.8,766,0,0.000311318,0.00129379,0.000325508,0.0152511,-0.00233189,0.000105057,0.000568314,-4.00161e-05,-0.0553643,-0.000427399,0.000124817,0.00799587,-0.0209311,6.67954e-05,0.000162163,-0.00924591
41,2,0,0,0,0,0,0,231.8,254,0,0,0,0,0,0,0,231.8,766,0,0.000807228,-0.000537262,9.66262e-05,0.0159378,-0.00126377,0.000829849,0.00060646,0.000646629,0.0366462,0.00125107,-0.000218506,0.00631741,-0.0210074,0.000410118,-0.000753365,-0.00958923
41,3,0,0,0,0,0,0,231.8,254,0,0,0,0,0,0,0,231.8,766,0,0.00103611,0.00152267,0.0010503,0.0169296,0.00152096,0.00163094,0.000453873,0.000227013,0.0746024,0.000755157,0.00111664,0.00898769,-0.0195197,2.86484e-05,0.00126843,-0.00794891
41,4,0,0,0,0,0,0,231.8,254,0,0,0,0,0,0,0,231.8,766,0,0.000387612,0.000492706,0.000821419,0.0162048,0.00236019,6.69097e-05,0.00133125,-0.00011631,-0.0596368,0.00128921,0.000544433,0.0114291,-0.0211218,0.000867882,-0.000219307,-0.00913147
41,5,0,0,0,0,0,0,231.8,254,0,0,0,0,0,0,0,231.8,766,0,0.00015873,0.00152267,0.00127918,0.017044,0.00434383,0.00105873,0.00098793,-0.000688515,-0.0241601,0.000907745,0.000697021,0.0144427,-0.0201682,0.00151638,0.00020031,-0.0101996
41,6,0,0,0,0,0,0,231.8,254,0,0,0,0,0,0,0,231.8,766,0,-0.00022274,0.000301971,0.000401802,0.0168914,0.0040768,0.000715408,0.000682754,0.000379601,-0.00356071,0.000297394,0.000277405,0.0161212,-0.0207404,0.00117306,0.00176434,-0.0081015
41,7,0,0,0,0,0,0,231.8,254,0,0,0,0,0,0,0,231.8,766,0,0.000235024,-0.00030838,-0.000628166,0.0155563,0.00361904,0.00094429,0.00049202,-7.81631e-05,0.0643027,0.000488129,-0.000638123,0.0193255,-0.0208548,0.000944176,0.0010014,-0.00989441
41,8,0,0,0,0,0,0,231.8,254,0,0,0,0,0,0,0,231.8,766,0,-0.000451622,0.000225677,0.000630684,0.0167007,0.00216946,0.00155464,0.00102608,0.000532188,-0.00241631,0.000411835,0.000773315,0.0210803,-0.0195578,0.00262264,0.00153545,-0.00913147
41,9,0,0,0,0,0,0,231.8,254,0,0,0,0,0,0,0,231.8,766,0,0.000387612,0.000569,0.000630684,0.0163192,0.00564083,0.000600967,7.24029e-05,0.00137142,-0.0235116,0.000678863,-0.000447388,0.0179522,-0.0206259,-0.000276527,0.000886955,-0.00703339
42,0,0,0,0,0,0,0,231.8,254,0,0,0,0,0,0,0,231.8,766,0,0.000921669,0.000492706,0.000745125,0.0167007,0.00697597,0.000867996,0.00114052,-1.86916e-06,0.0757087,0.00170883,0.000925903,0.0186007,-0.0208548,0.00109676,0.000352898,-0.00928406
42,1,0,0,0,0,0,0,231.8,254,0,0,0,0,0,0,0,231.8,766,0,0.0011124,0.000759735,0.00108845,0.0170059,0.00812038,0.00056282,0.0013694,0.00118069,-0.00604027,0.000984039,0.00104034,0.0175708,-0.0195578,0.00227932,0.00103954,-0.00859741
42,2,0,0,0,0,0,0,231.8,254,0,0,0,0,0,0,0,231.8,766,0,0.00115055,0.000530853,0.000287361,0.0162811,0.00621304,0.000181351,0.000186844,0.000722923,-0.0219857,-0.000198517,-0.000180359,0.018143,-0.0211218,-0.000276527,-2.8572e-05,-0.0101233
42,3,0,0,0,0,0,0,231.8,254,0,0,0,0,0,0,0,231.8,766,0,0.000692788,0.000454559,0.00112659,0.0168914,0.00503048,0.000524673,0.00125496,-0.000230751,0.0889838,0.00117477,0.00104034,0.0166552,-0.0195578,0.00147823,0.00126843,-0.00844482
42,4,0,0,0,0,0,0,231.8,254,0,0,0,0,0,0,0,231.8,766,0,0.000959816,0.000721588,0.00116474,0.015747,0.00445827,0.00136391,0.00133125,0.00026516,0.00143654,0.000831451,0.00107849,0.0140231,-0.0200156,0.00151638,0.00134472,-0.00848297
42,5,0,0,0,0,0,0,231.8,254,0,0,0,0,0,0,0,231.8,766,0,0.00115055,0.000759735,0.000706978,0.0162048,0.00247463,0.000639114,0.000835342,0.000570335,-0.0261437,0.000488129,0.00138367,0.0122302,-0.0200156,0.00117306,0.000124016,-0.00905518
42,6,0,0,0,0,0,0,231.8,254,0,0,0,0,0,0,0,231.8,766,0,0.000997963,0.00095047,0.00120289,0.0170059,0.00136837,0.000181351,0.000644607,0.000455895,0.0939429,0.0015181,0.00130737,0.00994137,-0.0206641,0.0012112,0.000276604,-0.00871185
42,7,0,0,0,0,0,0,231.8,254,0,0,0,0,0,0,0,231.8,766,0,0.000769082,0.000454559,0.00093586,0.0163955,0.00144466,0.00121132,0.000377579,0.00125698,0.00528938,0.000335541,0.00107849,0.0148623,-0.0210074,0.000753441,0.0022221,-0.00924591
42,8,0,0,0,0,0,0,231.8,254,0,0,0,0,0,0,0,231.8,766,0,-7.01519e-05,3.49423e-05,0.000668831,0.0161666,0.00411495,0.000486526,0.00114052,-0.000535927,-0.0561272,0.00136551,0.00145996,0.0154345,-0.0199393,0.00109676,-2.8572e-05,-0.00852112
42,9,0,0,0,0,0,0,231.8,254,0,0,0,0,0,0,0,231.8,766,0,0.000349465,0.000301971,0.00093586,0.0155182,0.00705227,0.00094429,0.000835342,7.44248e-05,-0.00855797,6.85118e-05,-0.000561829,0.0184863,-0.0202826,0.000753441,0.000276604,-0.00859741
43,0,0,0,0,0,0,0,231.8,254,0,0,0,0,0,0,0,231.8,766,0,0.00122685,3.49423e-05,0.000211067,0.0169296,0.00564083,0.000639114,0.00114052,0.00121883,0.0256599,0.000526275,0.000735168,0.0160449,-0.02116,0.00117306,0.000619926,-0.00852112
43,1,0,0,0,0,0,0,231.8,254,0,0,0,0,0,0,0,231.8,766,0,0.000578347,0.00018753,0.00146992,0.0162429,0.00503048,0.000753555,0.00121681,0.000570335,0.0603736,0.00163254,0.00138367,0.0178759,-0.0217322,0.000295677,0.00103954,-0.00897888
43,2,0,0,0,0,0,0,231.8,254,0,0,0,0,0,0,0,231.8,766,0,0.00115055,0.000569,0.000859566,0.0166626,0.00529751,0.000715408,7.24029e-05,0.00076107,-0.0497186,0.00109848,0.00153625,0.0196688,-0.0206641,0.000715294,0.00149731,-0.00924591
43,3,0,0,0,0,0,0,231.8,254,0,0,0,0,0,0,0,231.8,766,0,0.000196877,-0.000537262,0.00139362,0.0164718,0.000948753,0.00117317,0.00213234,-1.86916e-06,0.0330604,0.000373688,0.00119293,0.0174182,-0.0196722,0.000982323,0.000391045,-0.00909332
43,4,0,0,0,0,0,0,231.8,254,0,0,0,0,0,0,0,231.8,766,0,0.000616494,0.00018753,0.000134773,0.0157852,-0.00141636,0.000295792,0.00049202,0.000799217,0.0554145,0.000602569,-0.000905151,0.0136416,-0.0216177,0.000104942,0.000886955,-0.00886444
43,5,0,0,0,0,0,0,231.8,254,0,0,0,0,0,0,0,231.8,766,0,0.00130314,0.000874176,0.0010503,0.0166244,-0.00214115,0.000906143,0.00148384,0.000913658,-0.0472009,0.00193771,0.00130737,0.0134127,-0.0210074,0.0018597,0.00237469,-0.00943665
43,6,0,0,0,0,0,0,231.8,254,0,0,0,0,0,0,0,231.8,766,0,8.2436e-05,0.000301971,0.000592537,0.0155563,-0.000806007,0.000715408,3.42559e-05,0.000379601,0.0374854,0.00109848,-6.59181e-05,0.014786,-0.0211218,0.000600853,-0.00109669,-0.0075293
43,7,0,0,0,0,0,0,231.8,254,0,0,0,0,0,0,0,231.8,766,0,0.000769082,0.000683441,0.00055439,0.016777,0.00518307,0.000600967,0.000568314,0.00114254,0.0693,0.00128921,0.000277405,0.0140994,-0.0212363,0.0012875,0.00184063,-0.00901703
43,8,0,0,0,0,0,0,231.8,254,0,0,0,0,0,0,0,231.8,766,0,0.000387612,0.000607147,0.00017292,0.0163574,0.00277981,0.000333939,0.000682754,0.000570335,-0.0521981,0.000945892,-0.000371094,0.0142901,-0.02013,0.000906029,0.000467339,-0.00852112
43,9,0,0,0,0,0,0,231.8,254,0,0,0,0,0,0,0,231.8,766,0,-0.000108299,0.00129379,0.000668831,0.0155563,-0.000119362,0.000486526,0.000301285,0.000303307,0.0388969,0.00071701,-0.000409241,0.0144809,-0.0216177,0.00025753,0.000810661,-0.00833038
44,0,0,0,0,0,0,0,231.8,254,0,0,0,0,0,0,0,231.8,766,0,0.00145573,-0.000117646,0.00124104,0.0174255,0.00243649,0.00128761,0.000911636,0.000608482,0.0758613,0.000373688,0.00176514,0.0133746,-0.0207022,0.00151638,0.000886955,-0.00783447
44,1,0,0,0,0,0,0,231.8,254,0,0,0,0,0,0,0,231.8,766,0,0.000349465,0.000492706,0.000821419,0.0162429,0.00255093,-9.38424e-06,0.00110237,-0.000535927,-0.0594842,0.000488129,0.000506287,0.0160067,-0.0207785,0.000867882,0.000124016,-0.00836853
44,2,0,0,0,0,0,0,231.8,254,0,0,0,0,0,0,0,231.8,766,0,0.000883522,0.000301971,0.000668831,0.0166626,0.00716671,0.00159279,0.000148697,0.000684776,-0.0261819,0.00170883,0.00119293,0.0149768,-0.0210455,0.00105862,0.00172619,-0.00833038
44,3,0,0,0,0,0,0,231.8,254,0,0,0,0,0,0,0,231.8,766,0,0.000616494,-0.000346527,5.84793e-05,0.0165481,0.00987514,0.00105873,0.00106422,0.000455895,-0.00279777,-0.000770722,0.000925903,0.0138324,-0.0211981,0.000562706,0.000772514,-0.00894073
44,4,0,0,0,0,0,0,231.8,254,0,0,0,0,0,0,0,231.8,766,0,0.000883522,0.00167526,0.00166065,0.0163192,0.0123547,0.00109688,0.00102608,0.0016766,0.115115,0.000984039,0.000391846,0.0136035,-0.0207404,0.00147823,0.00134472,-0.0081778
44,5,0,0,0,0,0,0,231.8,254,0,0,0,0,0,0,0,231.8,766,0,0.000845375,0.000759735,0.000897713,0.0167007,0.0141476,0.000715408,0.000682754,0.000188866,0.186755,0.000411835,0.00142181,0.0119632,-0.0215033,0.0012875,0.00145916,-0.0101233
44,6,0,0,0,0,0,0,231.8,254,0,0,0,0,0,0,0,231.8,766,0,-0.00022274,0.000263824,-0.000170403,0.0157089,0.0165509,0.000410232,-0.000919418,-0.00011631,0.147654,6.85118e-05,-0.000599976,0.0118487,-0.0213126,-0.000276527,-0.00109669,-0.00901703
44,7,0,0,0,0,0,0,231.8,254,0,0,0,0,0,0,0,231.8,766,0,0.000730935,0.000988617,0.000974007,0.0165481,0.0146435,0.00124947,0.00102608,0.00148586,0.0912727,0.00132736,0.000735168,0.0146334,-0.0219992,0.00124935,0.000963249,-0.00909332
44,8,0,0,0,0,0,0,231.8,254,0,0,0,0,0,0,0,231.8,766,0,0.000425759,0.000569,0.000249214,0.0172348,0.0146054,0.00094429,0.00152199,0.000989952,-0.0840508,0.00121292,0.0010022,0.0140231,-0.0197104,0.0018597,0.000886955,-0.00897888
44,9,0,0,0,0,0,0,231.8,254,0,0,0,0,0,0,0,231.8,766,0,6.14207e-06,-0.000575409,0.000592537,0.0153274,0.0184201,-0.000276413,0.000720901,7.44248e-05,-0.0835168,0.000259247,-0.000371094,0.011925,-0.022724,6.67954e-05,0.000391045,-0.00844482
45,0,0,0,0,0,0,0,231.8,254,0,0,0,0,0,0,0,231.8,766,0,0.000959816,0.000988617,-0.000361137,0.0156707,0.0183819,0.000829849,0.0013694,-0.000154457,0.0430167,-0.000198517,0.00107849,0.0112384,-0.0210074,0.000524559,0.00149731,-0.00966553
45,1,0,0,0,0,0,0,231.8,254,0,0,0,0,0,0,0,231.8,766,0,0.00122685,0.0012175,0.00116474,0.01651,0.0166653,0.00128761,0.00144569,0.00114254,-0.0507104,0.0014418,0.0010022,0.0123065,-0.0199774,0.00170712,-0.00102039,-0.00775818
45,2,0,0,0,0,0,0,231.8,254,0,0,0,0,0,0,0,231.8,766,0,0.000311318,0.000111236,0.000325508,0.016777,0.0188015,0.000333939,0.000949783,0.00137142,-0.0759255,0.000335541,-0.000104065,0.00933102,-0.0223807,0.000600853,0.00184063,-0.0099707
45,3,0,0,0,0,0,0,231.8,254,0,0,0,0,0,0,0,231.8,766,0,0.00122685,0.000301971,0.000287361,0.0169296,0.0180386,0.00117317,0.00106422,7.44248e-05,0.0543082,0.000678863,0.00104034,0.0105517,-0.0197485,0.00132565,0.00161175,-0.00787262
45,4,0,0,0,0,0,0,231.8,254,0,0,0,0,0,0,0,231.8,766,0,0.0005402,0.000836029,0.00093586,0.0149841,0.0174664,0.00056282,-4.2038e-05,-4.00161e-05,-0.0339639,3.03648e-05,1.03759e-05,0.0108569,-0.0215414,-8.57925e-05,0.00107769,-0.00989441
45,5,0,0,0,0,0,0,231.8,254,0,0,0,0,0,0,0,231.8,766,0,0.000463906,0.000530853,-0.000361137,0.0163574,0.0143765,0.000486526,0.000873489,0.00148586,-0.0910317,3.03648e-05,0.00058258,0.0147097,-0.0207785,0.000867882,0.000963249,-0.00882629
45,6,0,0,0,0,0,0,231.8,254,0,0,0,0,0,0,0,231.8,766,0,0.000235024,0.000454559,0.00093586,0.0165481,0.0134228,0.000524673,0.000530167,-0.000268898,-0.037893,0.0014418,0.000735168,0.0144809,-0.021694,0.00163082,0.000124016,-0.00764374
45,7,0,0,0,0,0,0,231.8,254,0,0,0,0,0,0,0,231.8,766,0,0.000845375,0.000301971,-5.59617e-05,0.0171966,0.0134991,0.00056282,0.000186844,0.00133327,-0.000241928,0.000526275,0.000773315,0.0129931,-0.0212744,0.000906029,0.000276604,-0.0100851
45,8,0,0,0,0,0,0,231.8,254,0,0,0,0,0,0,0,231.8,766,0,0.00103611,0.00110306,0.000287361,0.0168914,0.010104,0.000715408,0.000797195,0.00125698,0.0344718,0.000640716,0.000697021,0.0166934,-0.0202063,0.00102047,0.00020031,-0.00768188
45,9,0,0,0,0,0,0,231.8,254,0,0,0,0,0,0,0,231.8,766,0,-0.000108299,0.000759735,0.000783272,0.0165481,0.009837,0.000867996,0.000377579,0.000646629,-0.0694405,-0.000236664,8.66698e-05,0.0170749,-0.0218848,0.00109676,0.000925102,-0.00916962
46,0,0,0,0,0,0,0,231.8,254,0,0,0,0,0,0,0,231.8,766,0,0.00122685,0.000607147,0.000439949,0.0148697,0.00506863,0.000753555,0.000263138,0.000570335,0.0172294,0.00109848,0.000277405,0.0120013,-0.0204733,0.000333824,0.0015736,-0.00813965
46,1,0,0,0,0,0,0,231.8,254,0,0,0,0,0,0,0,231.8,766,0,0.000387612,0.000797882,0.00093586,0.0166626,0.00358089,0.0014402,0.000949783,0.000951805,0.0424445,0.000984039,4.85228e-05,0.0107806,-0.0213126,0.0012875,0.00020031,-0.0081778
46,2,0,0,0,0,0,0,231.8,254,0,0,0,0,0,0,0,231.8,766,0,0.000273171,0.00018753,-9.41086e-05,0.0165863,0.0040768,-0.00031456,0.000224991,0.000417748,-0.0578057,0.000793304,0.000620727,0.0144809,-0.0208929,0.000562706,4.77219e-05,-0.00875
46,3,0,0,0,0,0,0,231.8,254,0,0,0,0,0,0,0,231.8,766,0,0.000997963,-0.000422821,0.000706978,0.0170059,0.0029324,0.000715408,0.000377579,0.000455895,0.0313056,0.000106659,0.000124817,0.0160449,-0.0207404,0.00105862,0.000734367,-0.00802521
46,4,0,0,0,0,0,0,231.8,254,0,0,0,0,0,0,0,231.8,766,0,0.000654641,0.00152267,0.000897713,0.0158233,0.00125393,0.00105873,0.00114052,0.000684776,0.0618995,0.000984039,4.85228e-05,0.0134509,-0.0215796,0.000295677,0.000238457,-0.00855927
46,5,0,0,0,0,0,0,231.8,254,0,0,0,0,0,0,0,231.8,766,0,0.000769082,0.000263824,0.000592537,0.0162429,-0.00164524,0.000257645,0.00011055,0.00118069,-0.0546777,0.000297394,0.000124817,0.0114672,-0.0213507,0.000219383,0.000619926,-0.00829224
46,6,0,0,0,0,0,0,231.8,254,0,0,0,0,0,0,0,231.8,766,0,-0.000146446,0.000530853,0.000287361,0.0157852,-0.000958595,0.000715408,-8.0185e-05,0.000227013,0.0368369,0.000869598,8.66698e-05,0.0151675,-0.0205496,-9.49856e-06,-0.00018116,-0.00878815
46,7,0,0,0,0,0,0,231.8,254,0,0,0,0,0,0,0,231.8,766,0,0.000730935,0.000378265,-0.000857048,0.0172348,-0.0034763,0.00113502,0.00125496,0.00121883,0.0739158,0.000259247,0.000697021,0.0176089,-0.0205878,0.00105862,0.00103954,-0.00882629
46,8,0,0,0,0,0,0,231.8,254,0,0,0,0,0,0,0,231.8,766,0,0.0011124,0.000759735,0.00150806,0.017044,-0.00442997,0.00147835,0.00106422,0.000799217,-0.0584542,0.000411835,0.000887756,0.0205462,-0.0198248,0.00151638,0.00107769,-0.00875
46,9,0,0,0,0,0,0,231.8,254,0,0,0,0,0,0,0,231.8,766,0,0.000425759,0.00171341,0.00146992,0.0151748,-0.00179783,0.000791702,0.000339432,0.0010281,-0.0232827,0.000678863,-0.00170624,0.0179522,-0.0202063,0.000982323,0.000124016,-0.00798706
47,0,0,0,0,0,0,0,231.8,254,0,0,0,0,0,0,0,231.8,766,0,0.000654641,-0.000117646,0.00124104,0.0168914,-0.00206486,0.000600967,0.000759048,0.00133327,-0.00310295,0.00254807,0.000811462,0.0163501,-0.0208929,0.000829735,0.00138287,-0.00775818
47,1,0,0,0,0,0,0,231.8,254,0,0,0,0,0,0,0,231.8,766,0,0.000463906,0.000874176,0.000592537,0.0162429,-0.00027195,0.000410232,0.000759048,-0.00049778,0.0645316,-7.78213e-06,0.000544433,0.0179522,-0.021427,0.000410118,-0.000333748,-0.00974182
47,2,0,0,0,0,0,0,231.8,254,0,0,0,0,0,0,0,231.8,766,0,0.000196877,0.000492706,9.66262e-05,0.0161285,0.00167355,0.000333939,-4.2038e-05,0.000684776,-0.00283592,-0.00138107,0.000429993,0.0195163,-0.0205496,0.00105862,0.000543633,-0.0093222
47,3,0,0,0,0,0,0,231.8,254,0,0,0,0,0,0,0,231.8,766,0,0.00103611,0.000683441,-0.000132256,0.0160141,0.00125393,0.00132576,0.000568314,0.00140957,-0.0243127,0.000869598,-0.000332947,0.0169604,-0.0199774,0.000371971,0.000925102,-0.00844482
47,4,0,0,0,0,0,0,231.8,254,0,0,0,0,0,0,0,231.8,766,0,0.000845375,0.00140823,0.00146992,0.017044,0.00049099,0.000982437,0.00114052,0.00106625,0.0747169,0.000984039,0.000773315,0.0172274,-0.0211981,0.000753441,0.00069622,-0.00760559
47,5,0,0,0,0,0,0,231.8,254,0,0,0,0,0,0,0,231.8,766,0,0.000921669,0.000454559,-0.000628166,0.0154419,-0.00179783,0.00109688,-0.000614243,7.44248e-05,-0.00279777,-7.78213e-06,-0.000104065,0.0150912,-0.0212363,0.000410118,0.00142101,-0.00981812
47,6,0,0,0,0,0,0,231.8,254,0,0,0,0,0,0,0,231.8,766,0,0.000349465,0.000645294,-0.00020855,0.0157089,-0.00389591,0.000486526,0.000797195,0.000608482,-0.0217568,-4.59291e-05,8.66698e-05,0.0116198,-0.0208929,0.000524559,-0.000829658,-0.00813965
47,7,0,0,0,0,0,0,231.8,254,0,0,0,0,0,0,0,231.8,766,0,0.000311318,0.00156082,0.00139362,0.01651,-0.00286594,0.00121132,0.00125496,0.000303307,0.0889457,0.00231918,0.00153625,0.0120776,-0.0198248,0.00197414,0.00058178,-0.00905518
47,8,0,0,0,0,0,0,231.8,254,0,0,0,0,0,0,0,231.8,766,0,0.0011887,0.000263824,5.84793e-05,0.0170822,-0.002103,0.00105873,0.00125496,0.000799217,0.0018943,-0.00115219,4.85228e-05,0.0169223,-0.0202826,0.00117306,0.000848808,-0.00787262
47,9,0,0,0,0,0,0,231.8,254,0,0,0,0,0,0,0,231.8,766,0,0.00126499,0.00167526,0.000211067,0.0151367,-0.00507847,0.000829849,0.00098793,0.000608482,-0.0249993,0.00155624,-0.00132477,0.01738,-0.0206259,0.000677147,0.0010014,-0.0075293
48,0,0,0,0,0,0,0,231.8,254,0,0,0,0,0,0,0,231.8,766,0,0.000349465,0.00106491,0.000439949,0.0167007,-0.000882301,0.000982437,0.000148697,0.000837364,0.0934089,-4.59291e-05,-0.000371094,0.0158923,-0.0205878,0.000524559,-0.000371895,-0.00794891
48,1,0,0,0,0,0,0,231.8,254,0,0,0,0,0,0,0,231.8,766,0,0.00141758,0.00137009,0.000783272,0.0168533,0.00201687,0.00136391,0.00117867,0.000150719,0.00582344,0.00106033,0.00138367,0.0165026,-0.0197104,0.000562706,0.000467339,-0.00672821
48,2,0,0,0,0,0,0,231.8,254,0,0,0,0,0,0,0,231.8,766,0,-0.000108299,0.000569,0.00108845,0.0160141,0.00140652,2.87627e-05,0.000530167,0.000303307,-0.055288,0.000869598,0.000620727,0.014786,-0.0215796,0.000486412,0.000429192,-0.00909332
48,3,0,0,0,0,0,0,231.8,254,0,0,0,0,0,0,0,231.8,766,0,0.000235024,0.0012175,0.000287361,0.0169677,0.00316128,0.000715408,0.00129311,0.000417748,-0.00695579,0.000526275,0.000773315,0.0152438,-0.0205115,0.00178341,0.00130657,-0.00920776
48,4,0,0,0,0,0,0,231.8,254,0,0,0,0,0,0,0,231.8,766,0,6.14207e-06,0.0011412,0.000401802,0.0156707,0.00579342,0.00128761,-0.000347214,0.000608482,0.0274909,0.00125107,8.66698e-05,0.0196688,-0.0207404,0.00113491,0.00138287,-0.00710968
48,5,0,0,0,0,0,0,231.8,254,0,0,0,0,0,0,0,231.8,766,0,0.000807228,0.000721588,0.00135548,0.0172348,0.011401,0.000791702,0.000835342,0.000799217,0.0595344,0.00128921,0.00134552,0.0194781,-0.0200537,0.0012875,0.000886955,-0.00924591
48,6,0,0,0,0,0,0,231.8,254,0,0,0,0,0,0,0,231.8,766,0,0.000349465,0.00171341,0.00093586,0.0157089,0.0123166,0.00102058,0.000377579,0.000303307,-0.0500619,0.000564422,-6.59181e-05,0.0175326,-0.0192526,0.00140194,0.0010014,-0.0081015
48,7,0,0,0,0,0,0,231.8,254,0,0,0,0,0,0,0,231.8,766,0,-0.000794944,0.00095047,9.66262e-05,0.0155182,0.00953182,-0.000352707,-0.000194626,0.000341454,0.0342048,0.000984039,-6.59181e-05,0.0143283,-0.0205115,2.86484e-05,0.00107769,-0.00848297
48,8,0,0,0,0,0,0,231.8,254,0,0,0,0,0,0,0,231.8,766,0,0.000807228,0.000874176,-0.000170403,0.0166626,0.00812038,0.000295792,0.000377579,-0.000650368,0.0546134,0.0002211,0.000506287,0.0170749,-0.0207404,0.000753441,0.00058178,-0.00871185
48,9,0,0,0,0,0,0,231.8,254,0,0,0,0,0,0,0,231.8,766,0,0.000463906,0.000340118,0.000668831,0.0156707,0.00712856,0.00132576,0.000949783,0.00026516,-0.0481927,0.000793304,0.000353699,0.0204318,-0.02116,0.000829735,0.000314751,-0.00909332
49,0,0,0,0,0,0,0,231.8,254,0,0,0,0,0,0,0,231.8,766,0,0.00103611,0.0012175,0.00143177,0.0165863,0.00663265,0.00102058,0.000415726,0.0016003,0.0387443,0.00136551,0.00138367,0.0155108,-0.0204352,0.00239376,0.00176434,-0.00878815
49,1,0,0,0,0,0,0,231.8,254,0,0,0,0,0,0,0,231.8,766,0,0.000959816,0.00129379,0.00116474,0.016777,0.00953182,0.000715408,0.00140755,0.00026516,0.0689567,0.00212845,0.00119293,0.0109713,-0.0195197,0.00205044,0.00142101,-0.00897888
49,2,0,0,0,0,0,0,231.8,254,0,0,0,0,0,0,0,231.8,766,0,0.000692788,0.00095047,0.00127918,0.0158996,0.00354275,0.000600967,0.000453873,-4.00161e-05,-0.0520074,0.00178513,0.000735168,0.0101321,-0.0208929,0.000715294,-0.000219307,-0.00829224
49,3,0,0,0,0,0,0,231.8,254,0,0,0,0,0,0,0,231.8,766,0,0.000349465,0.000378265,-0.000399284,0.0152511,0.0022839,0.000219498,0.00102608,-0.000802956,0.037638,6.85118e-05,0.000353699,0.00963619,-0.0205878,0.000867882,0.0010014,-0.0099707
49,4,0,0,0,0,0,0,231.8,254,0,0,0,0,0,0,0,231.8,766,0,-3.20049e-05,0.00095047,0.00124104,0.01548,0.00277981,0.000257645,0.000186844,-4.00161e-05,0.0749458,0.00170883,0.000887756,0.011658,-0.0213126,6.67954e-05,0.00149731,-0.00958923
49,5,0,0,0,0,0,0,231.8,254,0,0,0,0,0,0,0,231.8,766,0,0.0011124,0.000759735,0.000287361,0.0163192,0.0047253,0.00132576,-0.000385361,0.000532188,-0.0598656,0.00106033,0.000544433,0.0107043,-0.0202444,0.000791588,9.57493e-06,-0.00882629
49,6,0,0,0,0,0,0,231.8,254,0,0,0,0,0,0,0,231.8,766,0,0.00153202,0.000378265,0.000821419,0.01651,0.00247463,-0.000161972,-0.000537949,-0.000192604,-0.0269448,0.00128921,0.00104034,0.00971249,-0.0210455,0.00025753,-0.000143013,-0.007453
49,7,0,0,0,0,0,0,231.8,254,0,0,0,0,0,0,0,231.8,766,0,0.000692788,0.00110306,0.00112659,0.0163574,0.00262722,0.00128761,0.000568314,0.000989952,-0.00428551,0.00113663,0.000239258,0.0149005,-0.0205878,0.000448265,0.00115398,-0.00882629
49,8,0,0,0,0,0,0,231.8,254,0,0,0,0,0,0,0,231.8,766,0,0.000769082,0.00133194,0.000439949,0.0165481,-0.000195656,0.000677261,0.00098793,-0.000459633,0.066973,0.000984039,0.000315552,0.0142901,-0.0207404,0.000944176,0.00115398,-0.0102377
49,9,0,0,0,0,0,0,231.8,254,0,0,0,0,0,0,0,231.8,766,0,0.000349465,7.30893e-05,0.000401802,0.0160522,7.13731e-05,0.000105057,0.00098793,0.000379601,-0.00577324,0.000755157,4.85228e-05,0.0147479,-0.0206641,0.000562706,0.000314751,-0.00848297
50,0,0,0,0,0,0,0,231.8,254,0,0,0,0,0,0,0,231.8,766,0,0.00160831,0.000988617,0.000516243,0.0158233,-0.00336185,0.00102058,0.00102608,0.000455895,-0.0305688,0.000907745,0.00115479,0.0161212,-0.0206259,0.000410118,-0.000524483,-0.00699524
50,1,0,0,0,0,0,0,231.8,254,0,0,0,0,0,0,0,231.8,766,0,0.00137943,0.000607147,0.00146992,0.0171966,-0.00332371,0.000867996,0.00171272,0.000684776,0.0702537,0.00117477,0.00195587,0.0121539,-0.0209692,0.00147823,0.00237469,-0.00882629
50,2,0,0,0,0,0,0,231.8,254,0,0,0,0,0,0,0,231.8,766,0,0.000273171,0.000454559,0.000783272,0.0158233,0.00167355,0.00147835,0.000949783,-4.00161e-05,-0.00871056,0.00117477,0.000544433,0.0126498,-0.0192526,0.00124935,0.00184063,-0.00833038
50,3,0,0,0,0,0,0,231.8,254,0,0,0,0,0,0,0,231.8,766,0,-0.000184593,0.000988617,0.000783272,0.0155182,-0.00130192,0.000295792,-0.000614243,-0.000154457,-0.0287377,-4.59291e-05,0.00115479,0.0142901,-0.0213126,-0.00111576,0.00115398,-0.00871185
50,4,0,0,0,0,0,0,231.8,254,0,0,0,0,0,0,0,231.8,766,0,-3.20049e-05,-0.000117646,0.000745125,0.0156707,-0.000844154,0.000410232,0.000720901,-0.000421486,0.0843299,0.00102219,-0.000561829,0.0125735,-0.020397,0.000600853,0.000543633,-0.00867371
50,5,0,0,0,0,0,0,231.8,254,0,0,0,0,0,0,0,231.8,766,0,0.000425759,0.000530853,0.000249214,0.0160141,0.00113949,0.00102058,-0.000309067,0.000837364,-0.00336998,0.000640716,-0.000142212,0.0112002,-0.0208929,0.000791588,0.000734367,-0.00710968
50,6,0,0,0,0,0,0,231.8,254,0,0,0,0,0,0,0,231.8,766,0,0.000807228,0.00175156,0.00093586,0.0164337,-0.00076786,0.000486526,0.00175087,-7.81631e-05,-0.0329339,0.00189957,0.000506287,0.0141757,-0.0209692,0.0012112,0.00134472,-0.00813965
50,7,0,0,0,0,0,0,231.8,254,0,0,0,0,0,0,0,231.8,766,0,0.000311318,0.000645294,0.00055439,0.0162429,-0.00324741,0.000867996,0.000301285,0.000150719,0.0887931,0.00071701,0.000697021,0.0204318,-0.0196722,0.000867882,-0.000143013,-0.00840668
50,8,0,0,0,0,0,0,231.8,254,0,0,0,0,0,0,0,231.8,766,0,-0.000260887,0.00018753,-0.000132256,0.0164337,-0.00442997,6.69097e-05,0.00060646,-0.000459633,6.3248e-05,0.000335541,0.000391846,0.0234454,-0.0219611,0.000600853,0.000543633,-0.00989441
50,9,0,0,0,0,0,0,231.8,254,0,0,0,0,0,0,0,231.8,766,0,0.000349465,0.000378265,0.000516243,0.01651,-0.00301853,0.00117317,0.000835342,-0.000764809,-0.0618874,0.000526275,0.000277405,0.0281756,-0.02013,0.00109676,0.000772514,-0.00779633
51,0,0,0,0,0,0,0,231.8,254,0,0,0,0,0,0,0,231.8,766,0,-3.20049e-05,0.00117935,0.000478096,0.0163192,-0.00141636,0.000486526,0.000148697,0.000646629,-0.0123345,0.00125107,0.000811462,0.0232547,-0.0210837,0.000333824,0.000314751,-0.0093985
51,1,0,0,0,0,0,0,231.8,254,0,0,0,0,0,0,0,231.8,766,0,0.000730935,0.000454559,5.84793e-05,0.0168914,0.00255093,0.00056282,0.00114052,-1.86916e-06,0.0375236,0.000678863,0.000544433,0.019707,-0.0204352,0.000791588,0.00115398,-0.00920776
51,2,0,0,0,0,0,0,231.8,254,0,0,0,0,0,0,0,231.8,766,0,0.000692788,0.00125565,0.00139362,0.0167007,0.00400051,0.000982437,0.000377579,0.000417748,0.177332,0.000984039,0.000544433,0.0149005,-0.021427,0.00102047,0.00256542,-0.00886444
51,3,0,0,0,0,0,0,231.8,254,0,0,0,0,0,0,0,231.8,766,0,0.000845375,0.00133194,0.000974007,0.0167389,0.00758633,0.000867996,0.000949783,0.000150719,0.168825,0.00109848,0.00191772,0.0103228,-0.0205878,0.000982323,0.000925102,-0.00985626
51,4,0,0,0,0,0,0,231.8,254,0,0,0,0,0,0,0,231.8,766,0,0.000196877,0.00102676,0.00101215,0.0165863,0.00686153,0.000982437,0.00156013,0.000379601,0.139338,0.00186142,0.000658874,0.00914028,-0.0190237,0.00109676,0.00069622,-0.00867371
51,5,0,0,0,0,0,0,231.8,254,0,0,0,0,0,0,0,231.8,766,0,0.000654641,-0.000155793,-1.78147e-05,0.0165481,0.00876888,0.000715408,-0.000194626,0.000188866,0.00902779,0.000144806,-6.59181e-05,0.00795772,-0.0213507,6.67954e-05,0.000467339,-0.00958923
51,6,0,0,0,0,0,0,231.8,254,0,0,0,0,0,0,0,231.8,766,0,0.000235024,0.000225677,0.000363655,0.0166626,0.0097607,0.000219498,0.00098793,-0.000192604,-0.126585,0.00140366,0.0016507,0.00997951,-0.0208548,0.00105862,0.000734367,-0.00913147
51,7,0,0,0,0,0,0,231.8,254,0,0,0,0,0,0,0,231.8,766,0,0.00149387,0.00232376,0.00127918,0.0168533,0.0107525,0.00151649,0.000759048,0.000646629,-0.00829094,0.00106033,0.0010022,0.0128024,-0.0207785,0.00151638,0.00161175,-0.00863556
