Devices
1000
,,North - Force,,,North - Moment,,,North - CoP,,,South - Force,,,South - Moment,,,South - CoP,,,EMG - Voltage,,,,,,,,,,,,,,,,
Frame,Sub Frame,Fx,Fy,Fz,Mx,My,Mz,Cx,Cy,Cz,Fx,Fy,Fz,Mx,My,Mz,Cx,Cy,Cz,1,2,3,TA,5,Sol,7,8,VL,RF,BF,GlutMed,GlutMax,14,MedGast,16
,,N,N,N,N.mm,N.mm,N.mm,mm,mm,mm,N,N,N,N.mm,N.mm,N.mm,mm,mm,mm,V,V,V,V,V,V,V,V,V,V,V,V,V,V,V,V
1,0,0,0,0,0,0,0,231.8,254,0,0,0,0,0,0,0,231.8,766,0,0.000196877,0.00144638,0.00139362,0.0168914,0.0054501,0.00109688,-0.000309067,0.000532188,-0.0263726,0.00121292,0.0010022,0.0045245,-0.0200156,0.00113491,0.00142101,-0.00981812
1,1,0,0,0,0,0,0,231.8,254,0,0,0,0,0,0,0,231.8,766,0,-0.000375328,-0.000651703,-0.000132256,0.0169296,0.00430569,0.000791702,0.000873489,0.000494041,-0.0468575,0.000984039,1.03759e-05,0.00379971,-0.0211981,0.00178341,0.0010014,-0.00840668
1,2,0,0,0,0,0,0,231.8,254,0,0,0,0,0,0,0,231.8,766,0,0.0005402,0.000797882,0.000516243,0.0165481,0.00567898,0.00056282,0.000797195,0.000455895,-0.00722282,0.0002211,0.000162964,0.00727108,-0.0212744,0.000982323,0.000619926,-0.00875
1,3,0,0,0,0,0,0,231.8,254,0,0,0,0,0,0,0,231.8,766,0,0.000387612,-0.000537262,0.000211067,0.0158233,0.00621304,0.00056282,0.000339432,0.000837364,0.0413764,0.000182953,0.000353699,0.00818661,-0.0204352,0.00151638,0.00138287,-0.00966553
1,4,0,0,0,0,0,0,231.8,254,0,0,0,0,0,0,0,231.8,766,0,0.000425759,0.001866,0.000745125,0.0162811,0.00289425,0.000829849,0.000682754,0.000112572,0.0411094,0.0015181,0.000620727,0.0131076,-0.0211218,0.00147823,0.00107769,-0.00867371
1,5,0,0,0,0,0,0,231.8,254,0,0,0,0,0,0,0,231.8,766,0,0.00115055,0.000454559,0.00181324,0.0171203,0.00560268,0.000791702,0.000835342,0.000913658,-0.0477731,0.00254807,0.000773315,0.0182574,-0.0206641,0.00216488,0.00107769,-0.00730042
1,6,0,0,0,0,0,0,231.8,254,0,0,0,0,0,0,0,231.8,766,0,0.000845375,0.000988617,0.00112659,0.0169296,0.00579342,0.00128761,0.000530167,0.000913658,0.0556815,0.000564422,0.00130737,0.0216525,-0.0205496,0.00025753,0.00218395,-0.00707153
1,7,0,0,0,0,0,0,231.8,254,0,0,0,0,0,0,0,231.8,766,0,0.00122685,0.00102676,0.00127918,0.0168151,0.00323757,0.000448379,0.00049202,0.000875511,0.0376762,0.00239548,0.00107849,0.0220721,-0.0213889,0.00151638,0.000124016,-0.00772003
1,8,0,0,0,0,0,0,231.8,254,0,0,0,0,0,0,0,231.8,766,0,0.000959816,0.00159897,0.00139362,0.0168151,0.0040768,0.00105873,-0.000309067,0.00137142,-0.0434624,0.00125107,0.000315552,0.0185626,-0.0202444,0.00208858,0.00145916,-0.00871185
1,9,0,0,0,0,0,0,231.8,254,0,0,0,0,0,0,0,231.8,766,0,0.00015873,0.000492706,0.000630684,0.0174255,0.00323757,0.000829849,0.000911636,0.000608482,0.0644553,-0.000503693,0.00058258,0.0190203,-0.0212744,0.00113491,0.00191692,-0.00913147
2,0,0,0,0,0,0,0,231.8,254,0,0,0,0,0,0,0,231.8,766,0,-7.01519e-05,0.000111236,0.0010503,0.0166626,0.00640377,0.00132576,0.000873489,0.000379601,0.0475944,0.000640716,0.000162964,0.0205081,-0.0207785,0.00113491,0.000162163,-0.00875
2,1,0,0,0,0,0,0,231.8,254,0,0,0,0,0,0,0,231.8,766,0,0.00149387,0.000797882,-0.000628166,0.0170822,0.00861629,0.00151649,0.00060646,0.000989952,-0.0488793,0.000144806,-0.000142212,0.0182574,-0.0197104,0.000753441,0.000734367,-0.00909332
2,2,0,0,0,0,0,0,231.8,254,0,0,0,0,0,0,0,231.8,766,0,-0.000108299,-0.00030838,5.84793e-05,0.0156707,0.00239834,0.000486526,-3.89107e-06,3.62778e-05,0.0665153,0.00109848,-0.000752564,0.0176089,-0.0223807,0.000486412,0.000314751,-0.00955109
2,3,0,0,0,0,0,0,231.8,254,0,0,0,0,0,0,0,231.8,766,0,0.000769082,0.000912323,0.00177509,0.0172348,0.00514492,0.000448379,-3.89107e-06,0.000227013,0.0559104,0.000640716,0.000544433,0.0196688,-0.0207404,0.000791588,0.000314751,-0.00859741
2,4,0,0,0,0,0,0,231.8,254,0,0,0,0,0,0,0,231.8,766,0,0.000387612,0.000645294,0.00112659,0.0163574,0.00781521,0.000639114,0.00106422,0.000608482,-0.0645577,0.00106033,0.000544433,0.0211566,-0.0213889,0.000867882,0.00149731,-0.00901703
2,5,0,0,0,0,0,0,231.8,254,0,0,0,0,0,0,0,231.8,766,0,0.000654641,-0.000346527,0.000592537,0.0164718,0.00854,0.000906143,0.00163643,0.000989952,-0.0136697,0.0014418,0.000124817,0.0237887,-0.0208929,0.0012112,0.000619926,-0.00844482
2,6,0,0,0,0,0,0,231.8,254,0,0,0,0,0,0,0,231.8,766,0,0.000692788,0.00152267,0.00124104,0.0163192,0.00907406,0.000372085,0.000339432,0.000532188,0.0050605,0.0015181,0.000506287,0.0220721,-0.0205115,0.00117306,-0.000867805,-0.00821594
2,7,0,0,0,0,0,0,231.8,254,0,0,0,0,0,0,0,231.8,766,0,0.000196877,-0.000155793,0.000783272,0.01651,0.00609859,0.000753555,0.000224991,0.000303307,0.0726951,0.000335541,0.00149811,0.0175326,-0.0206641,0.000600853,0.00119213,-0.00894073
2,8,0,0,0,0,0,0,231.8,254,0,0,0,0,0,0,0,231.8,766,0,0.000997963,0.0012175,0.000859566,0.01651,0.00464901,0.00205055,0.00178902,0.000989952,-0.0271355,0.000907745,0.00111664,0.0132983,-0.0183752,0.00231747,0.00164989,-0.00722412
2,9,0,0,0,0,0,0,231.8,254,0,0,0,0,0,0,0,231.8,766,0,0.00252384,0.000874176,0.00120289,0.0171585,0.00632748,0.00140205,0.000682754,0.00190548,-0.00451439,0.00121292,-0.000256653,0.0104373,-0.0207404,0.000677147,0.000963249,-0.00787262
3,0,0,0,0,0,0,0,231.8,254,0,0,0,0,0,0,0,231.8,766,0,0.000997963,-0.000842438,0.00135548,0.0169677,0.00525936,0.00140205,0.00125496,0.000455895,0.0750983,0.00109848,0.00123108,0.0116961,-0.02013,0.00132565,0.00164989,-0.00775818
3,1,0,0,0,0,0,0,231.8,254,0,0,0,0,0,0,0,231.8,766,0,0.00130314,0.000836029,0.000974007,0.0158233,0.00533566,0.00117317,0.000835342,0.000608482,-0.0293862,0.00140366,-0.00101959,0.0121539,-0.0204733,0.0012875,0.00107769,-0.00871185
3,2,0,0,0,0,0,0,231.8,254,0,0,0,0,0,0,0,231.8,766,0,0.000387612,0.000683441,0.00101215,0.0162811,0.00430569,0.000600967,7.24029e-05,0.000150719,-0.00405663,-0.000389252,-0.000332947,0.00856808,-0.0215033,0.00113491,4.77219e-05,-0.00993256
3,3,0,0,0,0,0,0,231.8,254,0,0,0,0,0,0,0,231.8,766,0,-0.000375328,0.000492706,0.000516243,0.01548,0.00422939,-0.000161972,0.000453873,0.000989952,0.0894798,0.000564422,-0.000371094,0.0134509,-0.0201682,0.000753441,0.00184063,-0.00829224
3,4,0,0,0,0,0,0,231.8,254,0,0,0,0,0,0,0,231.8,766,0,0.000235024,0.000797882,0.000630684,0.0165863,0.00518307,0.000982437,0.000530167,0.00026516,-0.0280129,0.000259247,0.000735168,0.018143,-0.0210074,0.000906029,0.00180248,-0.00993256
3,5,0,0,0,0,0,0,231.8,254,0,0,0,0,0,0,0,231.8,766,0,0.00137943,-3.20468e-06,0.0010503,0.0166626,0.00709042,0.000333939,0.0013694,0.000646629,-0.00703209,0.000373688,0.000925903,0.017113,-0.0210837,0.000715294,0.000925102,-0.00783447
3,6,0,0,0,0,0,0,231.8,254,0,0,0,0,0,0,0,231.8,766,0,0.00141758,0.00106491,0.00112659,0.0174255,0.00812038,0.00113502,0.000682754,0.00118069,0.0952781,0.000869598,0.00145996,0.00944546,-0.0203589,0.000371971,0.000162163,-0.0068808
3,7,0,0,0,0,0,0,231.8,254,0,0,0,0,0,0,0,231.8,766,0,0.000273171,0.00106491,0.000745125,0.0159378,0.00823482,0.000791702,0.000835342,0.000379601,-0.0286233,0.0014418,0.00115479,0.00021389,-0.0221518,0.000715294,0.00161175,-0.00913147
3,8,0,0,0,0,0,0,231.8,254,0,0,0,0,0,0,0,231.8,766,0,0.000692788,7.30893e-05,0.000821419,0.0168914,0.010104,0.00113502,0.000186844,0.000455895,-0.0493371,0.000488129,0.000811462,0.00605038,-0.0209692,-0.000162086,0.000276604,-0.00993256
3,9,0,0,0,0,0,0,231.8,254,0,0,0,0,0,0,0,231.8,766,0,0.000425759,0.00129379,0.000134773,0.0159378,0.0118969,0.000867996,0.000911636,0.000722923,-0.00993126,0.00071701,-0.000180359,0.00963619,-0.0207404,0.000677147,0.00119213,-0.00981812
4,0,0,0,0,0,0,0,231.8,254,0,0,0,0,0,0,0,231.8,766,0,0.000502053,-0.00030838,0.000745125,0.0162048,0.0138806,0.000906143,0.000568314,0.000951805,0.0667823,-0.000122223,0.000391846,0.00700405,-0.0205878,0.000753441,0.000734367,-0.00791077
4,1,0,0,0,0,0,0,231.8,254,0,0,0,0,0,0,0,231.8,766,0,0.000235024,0.000340118,-0.000284843,0.0160141,0.00899776,0.000257645,0.000377579,0.000150719,0.188242,0.000755157,0.000391846,0.0076144,-0.0212744,0.00102047,0.000963249,-0.00859741
4,2,0,0,0,0,0,0,231.8,254,0,0,0,0,0,0,0,231.8,766,0,0.00115055,0.00163712,0.000897713,0.0165863,0.00808224,0.00128761,0.00049202,0.00175289,0.158869,0.000526275,0.00115479,0.0178759,-0.0200537,0.00208858,0.00103954,-0.00783447
4,3,0,0,0,0,0,0,231.8,254,0,0,0,0,0,0,0,231.8,766,0,0.000807228,0.000645294,0.0016988,0.0168914,0.00689968,0.00132576,0.00117867,0.00106625,0.123278,0.0015181,0.000620727,0.0179904,-0.0202444,0.00109676,0.000467339,-0.00783447
4,4,0,0,0,0,0,0,231.8,254,0,0,0,0,0,0,0,231.8,766,0,0.000769082,0.000225677,0.000363655,0.0161666,0.00648006,0.000181351,0.000568314,0.000303307,-0.0284325,0.000640716,0.000697021,0.0224154,-0.0202063,0.00124935,0.00126843,-0.00768188
4,5,0,0,0,0,0,0,231.8,254,0,0,0,0,0,0,0,231.8,766,0,0.000349465,-0.000117646,5.84793e-05,0.0154419,0.00827297,-0.000200119,0.000415726,-0.000307045,-0.117811,0.00071701,0.000773315,0.0233691,-0.0207404,-0.000657997,0.000734367,-0.00794891
4,6,0,0,0,0,0,0,231.8,254,0,0,0,0,0,0,0,231.8,766,0,-0.000108299,0.00106491,0.000249214,0.0165863,0.00617489,0.00109688,0.00133125,0.000303307,0.0174964,0.00132736,0.000162964,0.0230258,-0.02116,0.000562706,0.000162163,-0.00871185
4,7,0,0,0,0,0,0,231.8,254,0,0,0,0,0,0,0,231.8,766,0,0.00130314,0.00095047,0.000859566,0.0169677,0.00800594,0.00117317,-0.000118332,0.000799217,-0.00192039,0.00121292,8.66698e-05,0.0210421,-0.0199774,0.00166897,0.00142101,-0.00794891
4,8,0,0,0,0,0,0,231.8,254,0,0,0,0,0,0,0,231.8,766,0,-0.000260887,0.000530853,0.00055439,0.0161666,0.000414696,0.000677261,0.00117867,0.000570335,-0.103277,0.00109848,0.000201111,0.0150912,-0.0211218,0.000753441,0.000848808,-0.00775818
4,9,0,0,0,0,0,0,231.8,254,0,0,0,0,0,0,0,231.8,766,0,6.14207e-06,-3.20468e-06,-0.00020855,0.0152511,-0.00168339,0.00102058,0.000568314,0.000227013,0.0250114,-0.000961456,0.000201111,0.0131839,-0.0210074,6.67954e-05,0.00020031,-0.00726227
5,0,0,0,0,0,0,0,231.8,254,0,0,0,0,0,0,0,231.8,766,0,0.000463906,0.000378265,0.000249214,0.0155944,-0.00729099,0.000600967,0.000720901,0.000188866,0.0162376,-4.59291e-05,0.00111664,0.0140994,-0.0204352,0.00124935,0.000772514,-0.00909332
5,1,0,0,0,0,0,0,231.8,254,0,0,0,0,0,0,0,231.8,766,0,0.000692788,0.000797882,0.000630684,0.0162429,-0.00557438,0.000867996,0.000186844,-1.86916e-06,-0.101522,0.000869598,-0.000180359,0.01944,-0.0203207,0.000867882,0.000543633,-0.00833038
5,2,0,0,0,0,0,0,231.8,254,0,0,0,0,0,0,0,231.8,766,0,0.00141758,0.000645294,-0.00020855,0.0167389,-0.00355259,2.87627e-05,0.000415726,0.000875511,-0.0466286,0.000335541,0.000315552,0.017113,-0.0211218,-0.000314674,0.00020031,-0.00779633
5,3,0,0,0,0,0,0,231.8,254,0,0,0,0,0,0,0,231.8,766,0,0.000730935,0.0012175,0.000821419,0.0166244,-0.00114933,0.000219498,0.00159828,-0.000726662,-0.023626,0.00102219,0.00046814,0.018677,-0.0200919,0.000867882,-0.00018116,-0.00802521
5,4,0,0,0,0,0,0,231.8,254,0,0,0,0,0,0,0,231.8,766,0,-0.000566063,0.000378265,5.84793e-05,0.0160141,-0.00614658,0.00102058,0.000301285,0.000303307,0.0490058,6.85118e-05,4.85228e-05,0.0157397,-0.0210837,6.67954e-05,0.00176434,-0.00905518
5,5,0,0,0,0,0,0,231.8,254,0,0,0,0,0,0,0,231.8,766,0,0.000997963,0.000492706,0.00093586,0.0167007,-0.00877872,0.000410232,0.00049202,0.000684776,-0.0503289,0.00109848,0.000811462,0.0132602,-0.0213507,0.000639,-0.000143013,-0.0075293
5,6,0,0,0,0,0,0,231.8,254,0,0,0,0,0,0,0,231.8,766,0,0.000959816,0.00133194,0.000859566,0.0162048,-0.0046207,0.000906143,0.000301285,0.000646629,-0.0217568,0.000678863,0.00107849,0.0115817,-0.02013,0.00105862,0.000505486,-0.00760559
5,7,0,0,0,0,0,0,231.8,254,0,0,0,0,0,0,0,231.8,766,0,0.000235024,0.000912323,0.0010503,0.0170822,-0.0034,0.000867996,0.00129311,0.000684776,0.0602973,0.000869598,0.000735168,0.0117343,-0.0202063,0.00102047,0.000810661,-0.00859741
5,8,0,0,0,0,0,0,231.8,254,0,0,0,0,0,0,0,231.8,766,0,0.0005402,-7.94986e-05,0.000516243,0.0155944,-0.00484959,0.000410232,0.000644607,0.000150719,-0.0383508,0.000182953,0.000544433,0.0126498,-0.0202826,0.00124935,0.00115398,-0.00840668
5,9,0,0,0,0,0,0,231.8,254,0,0,0,0,0,0,0,231.8,766,0,0.000883522,-0.00019394,-0.000475578,0.0159759,-0.00481144,0.000639114,7.24029e-05,0.000341454,-0.012449,-0.000351105,0.000620727,0.0116961,-0.0215033,0.000371971,0.00123028,-0.00821594
6,0,0,0,0,0,0,0,231.8,254,0,0,0,0,0,0,0,231.8,766,0,0.000578347,0.000759735,0.000668831,0.0160141,-0.0046207,0.000410232,0.00152199,0.00026516,0.082804,0.00106033,0.00058258,0.00990322,-0.0207404,0.00113491,0.000619926,-0.00966553
6,1,0,0,0,0,0,0,231.8,254,0,0,0,0,0,0,0,231.8,766,0,0.000883522,0.000607147,0.000859566,0.0156707,-0.00389591,0.000715408,-0.000156479,0.000303307,-0.0320946,0.0002211,-0.000409241,0.00940731,-0.019863,0.00124935,0.000276604,-0.00798706
6,2,0,0,0,0,0,0,231.8,254,0,0,0,0,0,0,0,231.8,766,0,0.000311318,0.000759735,0.000706978,0.0161285,-0.000386391,0.000639114,0.000186844,0.000188866,-0.00878685,0.000297394,4.85228e-05,0.00933102,-0.02013,0.00113491,0.00168804,-0.00829224
6,3,0,0,0,0,0,0,231.8,254,0,0,0,0,0,0,0,231.8,766,0,0.000311318,-0.000270233,9.66262e-05,0.0146026,-0.00252262,0.000333939,0.000835342,-0.000230751,0.0925697,-8.40761e-05,0.000391846,0.00612667,-0.0215414,0.000448265,0.000810661,-0.0093985
6,4,0,0,0,0,0,0,231.8,254,0,0,0,0,0,0,0,231.8,766,0,0.000692788,0.000759735,0.00150806,0.0161285,-0.00286594,0.000410232,0.000911636,0.000951805,-0.026487,0.000297394,0.000773315,0.00997951,-0.0215796,0.000143089,0.00168804,-0.00760559
6,5,0,0,0,0,0,0,231.8,254,0,0,0,0,0,0,0,231.8,766,0,0.000349465,0.000607147,0.000478096,0.0162811,0.00205502,-9.38424e-06,0.000453873,0.000799217,-0.0455605,0.000793304,0.000887756,0.0106662,-0.0205878,0.00025753,0.000238457,-0.00749115
6,6,0,0,0,0,0,0,231.8,254,0,0,0,0,0,0,0,231.8,766,0,0.000425759,-0.000651703,0.000249214,0.0155563,-0.000233803,0.000333939,0.000835342,-0.000192604,-0.00726097,-0.000274811,0.000391846,0.00978878,-0.0207404,0.000677147,-2.8572e-05,-0.00897888
6,7,0,0,0,0,0,0,231.8,254,0,0,0,0,0,0,0,231.8,766,0,0.000769082,0.00110306,0.000592537,0.0158233,-0.00244633,0.00109688,0.000377579,0.000875511,0.041529,0.000640716,0.00138367,0.00742367,-0.0200537,0.000867882,0.00161175,-0.00813965
6,8,0,0,0,0,0,0,231.8,254,0,0,0,0,0,0,0,231.8,766,0,0.000120583,0.00102676,0.00108845,0.0163955,0.00159725,0.000600967,0.00106422,-1.86916e-06,0.0405372,0.000869598,0.0010022,0.00788143,-0.0199393,0.000753441,0.00111584,-0.00794891
6,9,0,0,0,0,0,0,231.8,254,0,0,0,0,0,0,0,231.8,766,0,-0.00110012,0.000416412,0.000401802,0.0150604,0.00445827,0.000219498,-0.000614243,0.000150719,-0.0481164,0.000259247,-0.000218506,0.00894955,-0.0211981,-0.000429115,0.000848808,-0.00855927
7,0,0,0,0,0,0,0,231.8,254,0,0,0,0,0,0,0,231.8,766,0,0.000921669,0.000874176,-5.59617e-05,0.0150604,0.00224575,0.000257645,0.00098793,-0.000230751,0.0548042,0.000678863,0.000429993,0.0105899,-0.0210074,0.000982323,0.000619926,-0.00859741
7,1,0,0,0,0,0,0,231.8,254,0,0,0,0,0,0,0,231.8,766,0,0.000845375,0.00110306,0.00120289,0.0153656,0.00232204,0.000715408,0.00114052,0.00118069,0.0377143,-0.000389252,-0.00105774,0.0112002,-0.0203207,0.00025753,0.00115398,-0.00726227
7,2,0,0,0,0,0,0,231.8,254,0,0,0,0,0,0,0,231.8,766,0,0.000807228,0.00140823,0.000592537,0.0159759,0.00506863,0.00132576,0.000377579,-7.81631e-05,-0.0431573,0.000755157,0.00153625,0.0151294,-0.0196722,0.00178341,0.00226025,-0.0093222
7,3,0,0,0,0,0,0,231.8,254,0,0,0,0,0,0,0,231.8,766,0,0.000921669,0.000874176,0.000287361,0.0158996,0.00361904,0.00128761,0.00178902,0.00026516,0.0651801,0.00147995,-0.000905151,0.0177615,-0.0208929,0.000829735,0.000734367,-0.00783447
7,4,0,0,0,0,0,0,231.8,254,0,0,0,0,0,0,0,231.8,766,0,0.000883522,0.000759735,0.000401802,0.0159378,0.0040768,0.000867996,0.000835342,0.000837364,0.0491584,0.000373688,0.00058258,0.0196307,-0.0202444,0.000753441,0.000963249,-0.00710968
7,5,0,0,0,0,0,0,231.8,254,0,0,0,0,0,0,0,231.8,766,0,0.000959816,0.000759735,0.000783272,0.0157852,0.00354275,0.000448379,0.00121681,0.000494041,-0.0484978,0.00121292,0.00126923,0.019707,-0.0209692,0.00178341,0.000162163,-0.00855927
7,6,0,0,0,0,0,0,231.8,254,0,0,0,0,0,0,0,231.8,766,0,-0.000642356,0.000530853,0.00101215,0.0156707,0.0060223,-0.000276413,7.24029e-05,-0.000192604,0.0674308,0.00106033,-0.000142212,0.016846,-0.0209692,-0.000276527,0.000543633,-0.00905518
7,7,0,0,0,0,0,0,231.8,254,0,0,0,0,0,0,0,231.8,766,0,0.00122685,0.0012175,0.000287361,0.0167007,0.00869259,0.000448379,0.00049202,0.000799217,0.0555671,0.000678863,0.00134552,0.0190203,-0.02116,0.00124935,0.000810661,-0.00875
7,8,0,0,0,0,0,0,231.8,254,0,0,0,0,0,0,0,231.8,766,0,0.000502053,0.00095047,0.00158436,0.0163955,0.00552639,0.000639114,0.000568314,0.000532188,-0.0634133,0.000831451,0.000925903,0.0218051,-0.0196341,0.000371971,0.000124016,-0.0081778
7,9,0,0,0,0,0,0,231.8,254,0,0,0,0,0,0,0,231.8,766,0,-0.000108299,0.000492706,9.66262e-05,0.0159378,0.00533566,0.00109688,-0.000499802,0.000417748,-0.0135552,0.000640716,-0.00105774,0.0190966,-0.0204733,0.000600853,0.0010014,-0.00855927
8,0,0,0,0,0,0,0,231.8,254,0,0,0,0,0,0,0,231.8,766,0,0.000997963,0.00095047,0.000211067,0.0161666,0.00487789,0.00113502,0.000835342,0.000379601,0.00536568,0.00132736,0.000735168,0.0185244,-0.0205496,0.00155453,0.00237469,-0.00829224
8,1,0,0,0,0,0,0,231.8,254,0,0,0,0,0,0,0,231.8,766,0,0.000616494,0.000683441,0.00124104,0.0159759,0.00266537,0.00128761,0.00049202,-0.00011631,0.0741447,0.00125107,0.000849609,0.0185626,-0.0200919,0.00102047,-0.000753365,-0.00684265
8,2,0,0,0,0,0,0,231.8,254,0,0,0,0,0,0,0,231.8,766,0,-0.000260887,-0.000422821,0.000211067,0.0152511,0.00426754,0.00102058,-0.000461655,0.000227013,-0.0286614,0.0002211,0.0010022,0.0177615,-0.0204352,0.00124935,0.000619926,-0.00813965
8,3,0,0,0,0,0,0,231.8,254,0,0,0,0,0,0,0,231.8,766,0,0.000654641,-0.000232087,-0.000551872,0.0160904,0.00693783,0.00056282,0.000720901,0.000341454,-0.00573509,0.000678863,8.66698e-05,0.0156634,-0.0212744,0.00132565,0.000429192,-0.00936035
8,4,0,0,0,0,0,0,231.8,254,0,0,0,0,0,0,0,231.8,766,0,0.000578347,0.00018753,0.000439949,0.0147934,0.00678524,0.000600967,-0.000537949,-4.00161e-05,0.0747932,0.000488129,-0.000905151,0.0164264,-0.0208548,-0.000734291,0.000238457,-0.00649933
8,5,0,0,0,0,0,0,231.8,254,0,0,0,0,0,0,0,231.8,766,0,0.00122685,0.000378265,0.00101215,0.016777,0.00594601,0.000486526,0.00148384,0.000494041,-0.0273644,-0.000122223,0.00134552,0.0149005,-0.0200537,0.00124935,0.00123028,-0.00871185
8,6,0,0,0,0,0,0,231.8,254,0,0,0,0,0,0,0,231.8,766,0,6.14207e-06,0.00102676,0.00108845,0.0158233,0.00503048,0.00121132,0.000530167,0.000417748,-0.00356071,0.000793304,-0.000218506,0.0188678,-0.0215796,0.00144009,0.00130657,-0.00802521
8,7,0,0,0,0,0,0,231.8,254,0,0,0,0,0,0,0,231.8,766,0,0.000807228,0.00140823,0.000325508,0.0169296,0.00606045,0.00109688,0.000377579,0.000989952,0.089022,0.00163254,0.00104034,0.0190966,-0.0207404,0.000600853,0.00172619,-0.00943665
8,8,0,0,0,0,0,0,231.8,254,0,0,0,0,0,0,0,231.8,766,0,0.000845375,-7.94986e-05,0.000745125,0.0160904,0.0054501,-0.000352707,0.000568314,0.000227013,-0.0282418,0.00071701,0.000697021,0.0157016,-0.0207785,0.000143089,-2.8572e-05,-0.0081778
8,9,0,0,0,0,0,0,231.8,254,0,0,0,0,0,0,0,231.8,766,0,-0.000337181,0.00125565,0.00143177,0.01651,0.00319942,0.000982437,0.00110237,0.000150719,-0.00604027,0.000640716,1.03759e-05,0.0187152,-0.0204352,0.0012112,0.00187878,-0.00916962
9,0,0,0,0,0,0,0,231.8,254,0,0,0,0,0,0,0,231.8,766,0,0.0005402,0.000797882,0.00055439,0.0160904,0.00281796,0.000372085,0.00060646,0.000532188,0.0945533,6.85118e-05,8.66698e-05,0.0195163,-0.0207404,0.00105862,0.000124016,-0.00756744
9,1,0,0,0,0,0,0,231.8,254,0,0,0,0,0,0,0,231.8,766,0,6.14207e-06,-0.000956879,0.000134773,0.0159378,0.00606045,0.000257645,0.000339432,-0.000154457,-0.0282418,0.000869598,-0.000561829,0.0140231,-0.0206641,0.000333824,-0.000371895,-0.00905518
9,2,0,0,0,0,0,0,231.8,254,0,0,0,0,0,0,0,231.8,766,0,0.00160831,0.000721588,-0.000132256,0.0160141,0.00625118,0.000372085,-4.2038e-05,0.00137142,-0.0471246,-0.000122223,0.000925903,0.0169604,-0.0215033,0.000486412,0.000963249,-0.00886444
9,3,0,0,0,0,0,0,231.8,254,0,0,0,0,0,0,0,231.8,766,0,0.000807228,0.000759735,-0.000361137,0.0156707,0.00949368,0.000486526,0.00125496,0.000608482,-0.0093972,0.000564422,-0.0015155,0.0170367,-0.0197104,0.00105862,0.000658073,-0.00829224
9,4,0,0,0,0,0,0,231.8,254,0,0,0,0,0,0,0,231.8,766,0,0.000196877,0.000607147,0.000745125,0.0163192,0.0108288,0.00136391,0.000759048,0.00121883,0.0438178,0.00163254,-0.000104065,0.014519,-0.0215414,0.00132565,0.00195507,-0.00718597
9,5,0,0,0,0,0,0,231.8,254,0,0,0,0,0,0,0,231.8,766,0,-3.20049e-05,0.000301971,5.84793e-05,0.0167389,0.0105236,0.000753555,0.00140755,-0.000650368,0.0387824,0.00167068,0.00096405,0.0167697,-0.0209311,0.000448265,-0.000410042,-0.00886444
9,6,0,0,0,0,0,0,231.8,254,0,0,0,0,0,0,0,231.8,766,0,4.4289e-05,-0.00019394,0.0010503,0.0155944,0.00678524,0.000295792,-0.000614243,-0.000230751,-0.0538384,-7.78213e-06,0.000697021,0.0141757,-0.0202063,6.67954e-05,0.00069622,-0.00875
9,7,0,0,0,0,0,0,231.8,254,0,0,0,0,0,0,0,231.8,766,0,0.000120583,3.49423e-05,-9.41086e-05,0.0158233,0.00564083,0.000867996,0.000186844,0.00026516,0.0514472,-0.000351105,8.66698e-05,0.0122302,-0.0202063,0.000753441,4.77219e-05,-0.00867371
9,8,0,0,0,0,0,0,231.8,254,0,0,0,0,0,0,0,231.8,766,0,0.000578347,0.000454559,0.000478096,0.0158233,0.00464901,0.000410232,0.000949783,0.000608482,0.0328315,0.00140366,1.03759e-05,0.0141375,-0.0211981,0.000677147,0.000124016,-0.00863556
9,9,0,0,0,0,0,0,231.8,254,0,0,0,0,0,0,0,231.8,766,0,0.000959816,0.000416412,0.000668831,0.0164337,0.00606045,0.00124947,0.00117867,0.000570335,-0.0512444,0.000335541,0.000506287,0.0151294,-0.02116,0.000829735,0.00103954,-0.00905518
10,0,0,0,0,0,0,0,231.8,254,0,0,0,0,0,0,0,231.8,766,0,0.000997963,7.30893e-05,2.03323e-05,0.0156707,0.00270351,0.000906143,0.000720901,0.000722923,0.058924,0.000335541,-0.000218506,0.0120395,-0.0209692,0.000982323,0.000963249,-0.00878815
10,1,0,0,0,0,0,0,231.8,254,0,0,0,0,0,0,0,231.8,766,0,0.000692788,0.000607147,0.000439949,0.0175781,0.00194057,0.000791702,0.00106422,0.000417748,0.0439323,0.000182953,0.000391846,0.0137942,-0.0200919,0.00132565,0.00142101,-0.00791077
10,2,0,0,0,0,0,0,231.8,254,0,0,0,0,0,0,0,231.8,766,0,0.000997963,0.000797882,0.000745125,0.0159378,0.00049099,0.000715408,0.000911636,0.000875511,-0.0549065,0.00125107,0.00046814,0.0153582,-0.0213507,0.000448265,0.000886955,-0.00665192
10,3,0,0,0,0,0,0,231.8,254,0,0,0,0,0,0,0,231.8,766,0,0.000349465,-4.13517e-05,9.66262e-05,0.0160522,-0.00328556,-0.000467148,0.000339432,0.000532188,0.0613654,0.00136551,0.00058258,0.0169986,-0.0212363,-0.000123939,0.000391045,-0.00867371
10,4,0,0,0,0,0,0,231.8,254,0,0,0,0,0,0,0,231.8,766,0,8.2436e-05,0.000874176,0.00154621,0.0171585,-0.000348244,0.00105873,0.00114052,0.000951805,0.0504935,0.00136551,0.00119293,0.0176471,-0.0215796,0.00105862,0.00130657,-0.00768188
10,5,0,0,0,0,0,0,231.8,254,0,0,0,0,0,0,0,231.8,766,0,0.000349465,-0.000117646,0.00124104,0.0172348,-0.000195656,0.00105873,0.000949783,0.000875511,-0.0706231,0.00140366,-0.000256653,0.0167697,-0.0199774,0.000944176,0.00206951,-0.00749115
10,6,0,0,0,0,0,0,231.8,254,0,0,0,0,0,0,0,231.8,766,0,0.000120583,0.00152267,0.000974007,0.0161285,-0.00263706,0.00105873,0.00106422,0.000112572,-0.0196587,0.00167068,0.000925903,0.0177233,-0.0212363,0.00189785,-0.000524483,-0.00756744
10,7,0,0,0,0,0,0,231.8,254,0,0,0,0,0,0,0,231.8,766,0,-3.20049e-05,-0.000346527,0.000897713,0.0168151,-0.00423924,0.000639114,0.00102608,0.000494041,0.00559456,-0.000274811,0.000658874,0.0187533,-0.020397,0.00136379,0.000848808,-0.0093985
10,8,0,0,0,0,0,0,231.8,254,0,0,0,0,0,0,0,231.8,766,0,-0.000489769,0.000225677,0.000325508,0.0168914,-0.000729713,0.00132576,0.00060646,0.000150719,0.144183,0.000297394,0.000201111,0.01841,-0.0206641,0.00178341,0.00153545,-0.00791077
10,9,0,0,0,0,0,0,231.8,254,0,0,0,0,0,0,0,231.8,766,0,0.000425759,0.000416412,-9.41086e-05,0.0156707,0.000796166,0.000829849,0.000186844,0.000837364,0.180994,0.000411835,-0.000104065,0.0179141,-0.0215414,0.000562706,0.00103954,-0.00714783
11,0,0,0,0,0,0,0,231.8,254,0,0,0,0,0,0,0,231.8,766,0,0.000311318,0.00182785,0.000516243,0.0175399,0.00121578,0.00136391,0.000797195,0.00106625,0.14464,0.000602569,0.000849609,0.0140994,-0.0207404,0.00140194,0.00134472,-0.00886444
11,1,0,0,0,0,0,0,231.8,254,0,0,0,0,0,0,0,231.8,766,0,0.00107426,0.000645294,0.00127918,0.017044,0.00586971,0.00105873,0.00102608,0.00106625,0.0664008,0.00117477,-0.000142212,0.0140994,-0.0204352,0.00155453,0.00069622,-0.00710968
11,2,0,0,0,0,0,0,231.8,254,0,0,0,0,0,0,0,231.8,766,0,0.000387612,0.000836029,0.000249214,0.0169296,0.00491604,6.69097e-05,0.000720901,0.000150719,-0.111173,0.00132736,0.00161255,0.0140231,-0.0220374,0.0012875,0.00153545,-0.00852112
11,3,0,0,0,0,0,0,231.8,254,0,0,0,0,0,0,0,231.8,766,0,0.000235024,0.000759735,0.000287361,0.0155182,0.00354275,0.000143204,0.00117867,0.000112572,-0.0573479,0.000335541,0.000353699,0.0152438,-0.0216559,0.000677147,8.58689e-05,-0.00920776
11,4,0,0,0,0,0,0,231.8,254,0,0,0,0,0,0,0,231.8,766,0,0.000883522,0.000454559,0.000897713,0.0166626,0.000414696,0.000410232,0.00098793,0.000837364,0.0454963,0.0002211,0.000277405,0.0160449,-0.0211218,0.000715294,-0.000143013,-0.00840668
11,5,0,0,0,0,0,0,231.8,254,0,0,0,0,0,0,0,231.8,766,0,-0.000260887,0.000530853,0.00127918,0.0158615,0.00289425,0.000295792,0.000568314,3.62778e-05,-0.0792825,0.00125107,0.00126923,0.013222,-0.0209692,0.00132565,0.00138287,-0.00909332
11,6,0,0,0,0,0,0,231.8,254,0,0,0,0,0,0,0,231.8,766,0,0.00130314,-0.00030838,0.000211067,0.0173111,0.00152096,0.000906143,0.000835342,0.000722923,-0.0515115,0.000488129,0.00123108,0.0137179,-0.0215414,-0.00023838,0.000238457,-0.00951294
11,7,0,0,0,0,0,0,231.8,254,0,0,0,0,0,0,0,231.8,766,0,-0.000375328,0.00117935,0.0010503,0.01548,0.0016354,6.69097e-05,0.000186844,-0.000154457,0.0595725,-0.00016037,-0.000371094,0.0129931,-0.0222662,0.000143089,0.000543633,-0.00871185
11,8,0,0,0,0,0,0,231.8,254,0,0,0,0,0,0,0,231.8,766,0,0.000883522,0.000492706,0.00112659,0.0170822,0.00365719,0.000257645,0.00098793,0.000532188,-0.0644814,0.000411835,0.00126923,0.0137561,-0.0202826,0.00105862,0.00168804,-0.00840668
11,9,0,0,0,0,0,0,231.8,254,0,0,0,0,0,0,0,231.8,766,0,-3.20049e-05,0.00018753,0.000363655,0.0168533,0.00571712,0.000486526,0.000415726,0.000150719,-0.0797402,0.000869598,0.000849609,0.0152819,-0.0211218,0.000944176,0.000543633,-0.00966553
12,0,0,0,0,0,0,0,231.8,254,0,0,0,0,0,0,0,231.8,766,0,0.000692788,-0.000422821,0.00101215,0.0160141,0.00686153,0.00159279,0.000873489,0.000303307,-0.0372826,-0.000770722,0.0010022,0.0169986,-0.0207785,0.000524559,0.000963249,-0.00852112
12,1,0,0,0,0,0,0,231.8,254,0,0,0,0,0,0,0,231.8,766,0,0.00015873,0.000645294,-5.59617e-05,0.0160141,0.00464901,0.000372085,0.000568314,0.000989952,0.0183356,-8.40761e-05,-0.000599976,0.0148623,-0.0205115,0.000791588,9.57493e-06,-0.0081778
12,2,0,0,0,0,0,0,231.8,254,0,0,0,0,0,0,0,231.8,766,0,0.000311318,0.000912323,0.00127918,0.0162811,0.00678524,0.000486526,0.0013694,0.000684776,0.0161994,0.0015181,0.000773315,0.015549,-0.0213507,0.000982323,0.00214581,-0.00920776
12,3,0,0,0,0,0,0,231.8,254,0,0,0,0,0,0,0,231.8,766,0,0.000845375,0.000492706,0.000401802,0.0166244,0.00335201,0.00102058,0.000568314,7.44248e-05,-0.0690209,0.000182953,0.00142181,0.0133746,-0.0202063,0.0012875,0.000734367,-0.00775818
12,4,0,0,0,0,0,0,231.8,254,0,0,0,0,0,0,0,231.8,766,0,0.000311318,-0.000346527,-5.59617e-05,0.0155563,0.00289425,-0.000429001,0.000759048,0.000875511,0.0385154,0.000640716,0.00096405,0.0105517,-0.020397,0.000104942,0.000238457,-0.00718597
12,5,0,0,0,0,0,0,231.8,254,0,0,0,0,0,0,0,231.8,766,0,0.000463906,0.000874176,0.00173695,0.0165481,0.00300869,0.000715408,0.00117867,0.000913658,0.0234092,0.00136551,0.00161255,0.0082629,-0.0204733,0.000219383,0.00115398,-0.00737671
12,6,0,0,0,0,0,0,231.8,254,0,0,0,0,0,0,0,231.8,766,0,0.000883522,0.000530853,0.0010503,0.0167007,0.0047253,0.000333939,0.00049202,0.00110439,-0.0563561,0.000488129,0.00134552,0.0161593,-0.0205878,0.000562706,0.00176434,-0.00943665
12,7,0,0,0,0,0,0,231.8,254,0,0,0,0,0,0,0,231.8,766,0,0.000692788,0.000988617,0.000134773,0.0158233,0.00358089,0.00105873,0.00011055,0.000684776,0.0545753,0.00071701,0.000162964,0.0144809,-0.0211218,-9.49856e-06,0.000467339,-0.00859741
12,8,0,0,0,0,0,0,231.8,254,0,0,0,0,0,0,0,231.8,766,0,0.000845375,0.000607147,0.000478096,0.0160522,0.00319942,0.000677261,0.00049202,-0.000345192,0.0412238,0.000526275,-0.000599976,0.00963619,-0.0207404,0.000677147,-0.000753365,-0.00920776
12,9,0,0,0,0,0,0,231.8,254,0,0,0,0,0,0,0,231.8,766,0,0.000387612,0.000263824,0.00131733,0.0165863,0.00354275,0.000791702,0.000568314,0.000951805,-0.0558221,0.00117477,0.000925903,0.00887325,-0.0210455,0.0012875,0.000467339,-0.00901703
13,0,0,0,0,0,0,0,231.8,254,0,0,0,0,0,0,0,231.8,766,0,0.000463906,0.000912323,-0.000399284,0.0158615,0.00510677,-0.000657883,0.000224991,0.000112572,0.0624335,0.000106659,0.000277405,0.0112384,-0.0213889,0.000295677,0.000162163,-0.00875
13,1,0,0,0,0,0,0,231.8,254,0,0,0,0,0,0,0,231.8,766,0,0.000578347,-0.000117646,5.84793e-05,0.015747,0.00529751,0.000486526,0.000148697,0.000608482,0.0520957,0.00109848,0.000315552,0.0129168,-0.0208548,0.00102047,0.00069622,-0.00825409
13,2,0,0,0,0,0,0,231.8,254,0,0,0,0,0,0,0,231.8,766,0,0.00130314,0.0011412,0.00120289,0.016777,0.00659451,0.000867996,0.000339432,0.000646629,-0.065664,6.85118e-05,0.000735168,0.0146716,-0.0202063,0.000295677,0.000543633,-0.00897888
13,3,0,0,0,0,0,0,231.8,254,0,0,0,0,0,0,0,231.8,766,0,-0.000184593,0.000530853,0.00017292,0.0153274,0.00571712,0.000219498,-0.000843124,0.000417748,-0.0152337,-0.000122223,-0.000142212,0.0126498,-0.0210837,0.000639,0.00111584,-0.00787262
13,4,0,0,0,0,0,0,231.8,254,0,0,0,0,0,0,0,231.8,766,0,0.00015873,0.0011412,5.84793e-05,0.0164337,0.00884518,0.000906143,0.00114052,0.000913658,0.00307686,0.000144806,0.00115479,0.0131457,-0.0211981,0.000829735,0.00149731,-0.00813965
13,5,0,0,0,0,0,0,231.8,254,0,0,0,0,0,0,0,231.8,766,0,-3.20049e-05,0.000111236,-0.00032299,0.0155944,0.0105236,2.87627e-05,-0.000728684,-0.00049778,0.0722373,3.03648e-05,-0.000867005,0.0162356,-0.0209692,-9.49856e-06,9.57493e-06,-0.00894073
13,6,0,0,0,0,0,0,231.8,254,0,0,0,0,0,0,0,231.8,766,0,0.000921669,0.000416412,0.000783272,0.0168914,0.0109051,0.000486526,0.000682754,0.00114254,-0.026487,0.00102219,0.000544433,0.0150912,-0.0218085,0.000715294,0.000543633,-0.00840668
13,7,0,0,0,0,0,0,231.8,254,0,0,0,0,0,0,0,231.8,766,0,0.000387612,0.000645294,0.000668831,0.0168151,0.011401,0.00117317,0.00129311,0.000684776,-0.00260704,0.00102219,0.00168884,0.0163119,-0.0205878,0.00105862,0.000162163,-0.00833038
13,8,0,0,0,0,0,0,231.8,254,0,0,0,0,0,0,0,231.8,766,0,0.00160831,0.001866,0.000783272,0.0173874,0.0135373,0.00056282,0.000949783,0.00129513,0.077082,0.000373688,0.00130737,0.0174563,-0.0195959,0.000677147,0.000276604,-0.00947479
13,9,0,0,0,0,0,0,231.8,254,0,0,0,0,0,0,0,231.8,766,0,0.000235024,3.49423e-05,0.000668831,0.0162429,0.00972256,0.000257645,0.000186844,0.000455895,-0.0249612,0.000869598,-2.77711e-05,0.0128024,-0.0211218,0.000753441,0.000658073,-0.00863556
14,0,0,0,0,0,0,0,231.8,254,0,0,0,0,0,0,0,231.8,766,0,0.000769082,-0.000155793,0.000134773,0.0156707,0.00865444,0.000219498,0.000759048,-0.000192604,-0.000699691,0.0002211,-0.000371094,0.0139468,-0.0207785,-8.57925e-05,8.58689e-05,-0.0068045
14,1,0,0,0,0,0,0,231.8,254,0,0,0,0,0,0,0,231.8,766,0,0.000654641,-0.000346527,0.00055439,0.0165863,0.0107907,0.000105057,0.00106422,0.000837364,0.09318,0.000564422,0.00142181,0.0111239,-0.0207404,0.000333824,0.00103954,-0.00783447
14,2,0,0,0,0,0,0,231.8,254,0,0,0,0,0,0,0,231.8,766,0,0.000616494,0.000721588,0.000211067,0.0151367,0.0110577,0.00056282,0.000568314,-0.000383339,-0.0242364,0.000335541,-0.000332947,0.0140612,-0.020397,0.000791588,0.000658073,-0.00905518
14,3,0,0,0,0,0,0,231.8,254,0,0,0,0,0,0,0,231.8,766,0,0.000730935,-0.000232087,0.00120289,0.0169677,0.0100277,0.000791702,0.000797195,0.000379601,-0.00169151,0.000182953,0.000697021,0.0187533,-0.0204733,0.000639,0.000848808,-0.00863556
14,4,0,0,0,0,0,0,231.8,254,0,0,0,0,0,0,0,231.8,766,0,0.000769082,-0.000155793,0.000592537,0.0158233,0.0109814,6.69097e-05,0.000682754,0.000150719,0.0975669,0.000602569,0.00104034,0.0160067,-0.0221899,-0.000467262,0.000734367,-0.0102377
14,5,0,0,0,0,0,0,231.8,254,0,0,0,0,0,0,0,231.8,766,0,0.000616494,0.000340118,0.000592537,0.0161285,0.00739559,0.000829849,-0.000194626,3.62778e-05,-0.0243127,0.00071701,0.000925903,0.0150531,-0.0210455,6.67954e-05,0.000314751,-0.00737671
14,6,0,0,0,0,0,0,231.8,254,0,0,0,0,0,0,0,231.8,766,0,-0.000184593,0.00106491,0.00112659,0.0162811,0.00728115,0.000295792,0.000873489,0.000570335,-0.0439584,0.000488129,0.00134552,0.0151294,-0.0202826,0.000829735,-2.8572e-05,-0.00813965
14,7,0,0,0,0,0,0,231.8,254,0,0,0,0,0,0,0,231.8,766,0,0.000730935,0.000301971,0.00108845,0.01651,0.00419125,0.000982437,0.000530167,0.00026516,-0.00596397,0.000640716,0.000429993,0.0151675,-0.0209692,0.000791588,0.000429192,-0.00813965
14,8,0,0,0,0,0,0,231.8,254,0,0,0,0,0,0,0,231.8,766,0,0.000273171,0.000912323,-9.41086e-05,0.0168914,0.00510677,0.00117317,0.000263138,0.000646629,0.0447715,0.000449982,0.000239258,0.0148623,-0.0197485,0.000906029,0.00199322,-0.00966553
14,9,0,0,0,0,0,0,231.8,254,0,0,0,0,0,0,0,231.8,766,0,-0.00022274,0.000149383,0.000668831,0.0160141,0.00373348,0.000715408,0.00121681,0.000150719,0.0393546,0.000106659,0.000544433,0.0134127,-0.0205496,0.000410118,0.000886955,-0.00829224
15,0,0,0,0,0,0,0,231.8,254,0,0,0,0,0,0,0,231.8,766,0,0.000769082,0.000607147,-9.41086e-05,0.0161285,0.00049099,0.000448379,0.000301285,0.000684776,-0.0491845,0.00071701,-0.000409241,0.0160067,-0.0200156,0.000524559,0.00103954,-0.00951294
15,1,0,0,0,0,0,0,231.8,254,0,0,0,0,0,0,0,231.8,766,0,0.000654641,0.00144638,0.000439949,0.0164718,0.00598415,0.000639114,0.000759048,0.00114254,0.0544227,0.000373688,0.00104034,0.0202792,-0.0224188,0.000867882,0.00149731,-0.00806335
15,2,0,0,0,0,0,0,231.8,254,0,0,0,0,0,0,0,231.8,766,0,0.00107426,0.000759735,0.0010503,0.0166626,0.00319942,0.00094429,0.000759048,7.44248e-05,0.0355018,0.00128921,0.00046814,0.0189059,-0.02013,0.000982323,0.000658073,-0.0068808
15,3,0,0,0,0,0,0,231.8,254,0,0,0,0,0,0,0,231.8,766,0,0.00115055,0.000569,0.00017292,0.016777,0.00365719,0.000372085,0.000377579,-4.00161e-05,-0.047239,-0.000274811,0.000162964,0.0163882,-0.0205496,0.000410118,0.000429192,-0.00867371
15,4,0,0,0,0,0,0,231.8,254,0,0,0,0,0,0,0,231.8,766,0,0.000235024,0.000340118,0.000287361,0.0167389,0.00388607,0.000105057,0.00011055,-0.000383339,0.062281,0.000945892,-0.000638123,0.0169223,-0.0205115,0.000448265,0.00123028,-0.00840668
15,5,0,0,0,0,0,0,231.8,254,0,0,0,0,0,0,0,231.8,766,0,-3.20049e-05,0.000378265,0.000668831,0.0150985,0.00655636,0.000982437,-4.2038e-05,-0.000841103,0.0465644,0.000907745,-0.000599976,0.0134127,-0.0205878,0.000944176,0.00119213,-0.00749115
15,6,0,0,0,0,0,0,231.8,254,0,0,0,0,0,0,0,231.8,766,0,0.000921669,0.000759735,0.000706978,0.0162811,0.0097607,0.000715408,0.00117867,0.00152401,-0.0533044,-0.000732575,0.000773315,0.0157779,-0.0202826,0.000562706,0.000886955,-0.00916962
15,7,0,0,0,0,0,0,231.8,254,0,0,0,0,0,0,0,231.8,766,0,0.0005402,0.000912323,0.000249214,0.0169677,0.0066708,0.000677261,0.000644607,-1.86916e-06,0.0640357,0.00170883,-0.000332947,0.0163119,-0.0202063,0.00182156,0.000352898,-0.00802521
15,8,0,0,0,0,0,0,231.8,254,0,0,0,0,0,0,0,231.8,766,0,0.00145573,0.00140823,0.00139362,0.0163192,0.00712856,0.00094429,0.000453873,0.000837364,0.0528968,0.00186142,0.000811462,0.0136416,-0.0206641,0.0012875,0.0010014,-0.00852112
15,9,0,0,0,0,0,0,231.8,254,0,0,0,0,0,0,0,231.8,766,0,0.000997963,0.000454559,0.000516243,0.01651,0.00255093,0.00094429,-0.000309067,0.000188866,-0.0686394,0.00109848,0.000429993,0.0137561,-0.02013,0.00113491,0.000314751,-0.00638489
16,0,0,0,0,0,0,0,231.8,254,0,0,0,0,0,0,0,231.8,766,0,0.00103611,0.000301971,0.000974007,0.0166244,0.00171169,-0.000200119,0.00060646,0.000875511,-0.0178658,-7.78213e-06,0.000315552,0.0119632,-0.0218085,0.000562706,0.000619926,-0.00825409
16,1,0,0,0,0,0,0,231.8,254,0,0,0,0,0,0,0,231.8,766,0,0.00107426,0.00110306,2.03323e-05,0.0167007,0.00209316,0.000257645,-0.00122459,0.00121883,0.00784523,0.00109848,0.000773315,0.00780514,-0.0210074,0.000143089,0.000124016,-0.00813965
16,2,0,0,0,0,0,0,231.8,254,0,0,0,0,0,0,0,231.8,766,0,-0.000871238,-0.000727997,0.00055439,0.015747,-0.00114933,0.00102058,0.000377579,-0.00103184,0.144411,0.000907745,-0.000180359,0.0131457,-0.0210837,0.000639,0.000162163,-0.00859741
16,3,0,0,0,0,0,0,231.8,254,0,0,0,0,0,0,0,231.8,766,0,0.000807228,0.000263824,0.000249214,0.0158996,0.000948753,0.00140205,0.000148697,0.000684776,0.181872,-0.000312958,-0.000485535,0.0161975,-0.02013,0.000600853,0.00168804,-0.00920776
16,4,0,0,0,0,0,0,231.8,254,0,0,0,0,0,0,0,231.8,766,0,0.000769082,0.000340118,0.00131733,0.0173492,7.13731e-05,0.000677261,0.0013694,0.00133327,0.145747,0.000259247,0.00058258,0.0144809,-0.0205496,0.0012112,0.000734367,-0.00821594
16,5,0,0,0,0,0,0,231.8,254,0,0,0,0,0,0,0,231.8,766,0,-7.01519e-05,0.000416412,0.000745125,0.0165481,0.00178799,0.00147835,0.000148697,-0.000268898,0.0676597,0.000984039,-0.000332947,0.0175708,-0.0203589,0.00113491,-0.000677071,-0.00775818
16,6,0,0,0,0,0,0,231.8,254,0,0,0,0,0,0,0,231.8,766,0,0.000349465,0.000569,-0.000666313,0.0162811,0.000338402,0.000372085,-0.000309067,7.44248e-05,-0.110143,-0.000351105,0.000315552,0.0191348,-0.0196722,0.000562706,0.0010014,-0.00916962
16,7,0,0,0,0,0,0,231.8,254,0,0,0,0,0,0,0,231.8,766,0,0.0005402,7.30893e-05,0.000478096,0.0160141,-8.12148e-05,-8.56782e-05,0.00178902,-0.00049778,-0.0563561,0.000869598,-0.000104065,0.0157779,-0.0210455,0.00025753,-0.00109669,-0.00882629
16,8,0,0,0,0,0,0,231.8,254,0,0,0,0,0,0,0,231.8,766,0,0.000273171,0.00110306,0.00093586,0.0158615,0.0022076,0.000753555,-3.89107e-06,0.00163845,0.0464118,0.000335541,0.00104034,0.0116961,-0.02116,0.000371971,0.00142101,-0.00836853
16,9,0,0,0,0,0,0,231.8,254,0,0,0,0,0,0,0,231.8,766,0,8.2436e-05,0.000378265,9.66262e-05,0.0161285,0.00197872,0.000524673,-0.000156479,0.000494041,-0.0790917,0.00140366,-0.0002948,0.00837734,-0.0205878,0.000219383,0.000124016,-0.00768188
17,0,0,0,0,0,0,0,231.8,254,0,0,0,0,0,0,0,231.8,766,0,0.000273171,0.00148453,0.00101215,0.0158615,0.00247463,0.00170723,0.000415726,-0.000383339,-0.0507485,0.00182327,0.000544433,0.00845364,-0.0199011,0.00178341,0.00142101,-0.00852112
17,1,0,0,0,0,0,0,231.8,254,0,0,0,0,0,0,0,231.8,766,0,0.000235024,0.000721588,0.000783272,0.0171585,-0.00111118,0.00132576,7.24029e-05,0.000532188,0.059687,0.000488129,0.000773315,0.0095599,-0.0205878,0.00151638,0.0010014,-0.00928406
17,2,0,0,0,0,0,0,231.8,254,0,0,0,0,0,0,0,231.8,766,0,8.2436e-05,-4.13517e-05,0.000401802,0.0160141,0.000185814,0.000257645,-0.000843124,-0.000268898,-0.0642144,0.000984039,-0.000943298,0.00940731,-0.0204352,0.00109676,0.000124016,-0.00894073
17,3,0,0,0,0,0,0,231.8,254,0,0,0,0,0,0,0,231.8,766,0,-3.20049e-05,0.000988617,-1.78147e-05,0.0157852,0.00209316,0.00140205,0.000911636,-1.86916e-06,-0.0788247,0.000488129,0.00161255,0.0106662,-0.0214651,0.0012875,0.00180248,-0.00890259
17,4,0,0,0,0,0,0,231.8,254,0,0,0,0,0,0,0,231.8,766,0,0.000845375,0.00102676,-0.000170403,0.0166244,-0.00256077,0.00056282,0.00106422,0.000799217,-0.0369012,0.000602569,0.000239258,0.0128787,-0.0205496,0.00197414,-2.8572e-05,-0.00878815
17,5,0,0,0,0,0,0,231.8,254,0,0,0,0,0,0,0,231.8,766,0,0.00015873,0.00148453,0.00185139,0.0167389,-0.00587955,0.00159279,0.000453873,0.000684776,0.0188697,0.00102219,8.66698e-05,0.0149768,-0.0208167,0.000677147,0.00176434,-0.00779633
17,6,0,0,0,0,0,0,231.8,254,0,0,0,0,0,0,0,231.8,766,0,-0.000375328,0.000645294,-5.59617e-05,0.0168533,-0.00488773,0.000295792,-8.0185e-05,-0.00011631,0.0163139,0.00167068,0.00123108,0.0142138,-0.0206641,0.0012875,0.00020031,-0.00955109
17,7,0,0,0,0,0,0,231.8,254,0,0,0,0,0,0,0,231.8,766,0,6.14207e-06,-0.00126205,0.00017292,0.0156707,-0.00515476,0.000715408,0.000530167,-0.000307045,-0.069555,-0.000274811,0.000391846,0.0161593,-0.0210074,0.000867882,0.000543633,-0.00798706
17,8,0,0,0,0,0,0,231.8,254,0,0,0,0,0,0,0,231.8,766,0,-0.00110012,0.0012175,0.000249214,0.0161285,-0.00317112,0.000829849,-0.000385361,-1.86916e-06,0.0382865,0.000144806,-0.0002948,0.0163119,-0.0207404,0.00132565,0.000963249,-0.00775818
17,9,0,0,0,0,0,0,231.8,254,0,0,0,0,0,0,0,231.8,766,0,0.000959816,-3.20468e-06,0.0010503,0.016777,0.0009869,0.000257645,0.000759048,0.000341454,0.0216544,0.00174698,0.00104034,0.0137179,-0.0199393,0.0012875,-0.000677071,-0.00901703
18,0,0,0,0,0,0,0,231.8,254,0,0,0,0,0,0,0,231.8,766,0,0.00153202,0.000645294,0.0010503,0.0167007,0.00304684,0.00155464,0.00121681,0.000951805,-0.056585,0.000259247,0.00149811,0.0191729,-0.0205878,0.00124935,0.0015736,-0.007453
18,1,0,0,0,0,0,0,231.8,254,0,0,0,0,0,0,0,231.8,766,0,0.000959816,0.00129379,0.000439949,0.0167389,-0.00126377,0.00117317,0.00102608,0.00076107,0.0544227,0.000526275,8.66698e-05,0.0205844,-0.0215033,0.00147823,0.00138287,-0.00741486
18,2,0,0,0,0,0,0,231.8,254,0,0,0,0,0,0,0,231.8,766,0,0.000692788,0.00106491,0.00131733,0.0158233,-0.00160709,0.000829849,0.000568314,0.000112572,0.0400413,0.000373688,-0.000409241,0.0167315,-0.0197485,0.00102047,0.00138287,-0.00684265
18,3,0,0,0,0,0,0,231.8,254,0,0,0,0,0,0,0,231.8,766,0,-0.000299034,0.000874176,0.000211067,0.015747,-0.00103489,0.000410232,0.000415726,0.000494041,-0.0555169,0.000869598,-0.000371094,0.015549,-0.0218466,0.000295677,0.00069622,-0.00684265
18,4,0,0,0,0,0,0,231.8,254,0,0,0,0,0,0,0,231.8,766,0,0.000692788,0.00144638,0.00127918,0.0169677,-0.000691566,0.00124947,-3.89107e-06,3.62778e-05,0.0619758,0.000793304,0.00153625,0.0131839,-0.0200537,0.000410118,0.000429192,-0.00802521
18,5,0,0,0,0,0,0,231.8,254,0,0,0,0,0,0,0,231.8,766,0,-0.000680503,0.000225677,0.000363655,0.0158233,0.000338402,0.00105873,-3.89107e-06,-0.00011631,0.0514091,0.000526275,-0.0015155,0.0160449,-0.0197104,0.000524559,0.000734367,-0.00821594
18,6,0,0,0,0,0,0,231.8,254,0,0,0,0,0,0,0,231.8,766,0,0.000502053,0.00095047,0.000783272,0.0166244,0.00201687,-0.000161972,0.00049202,0.0010281,-0.0661599,0.000526275,0.000620727,0.0164645,-0.0210455,0.000371971,0.000810661,-0.00878815
18,7,0,0,0,0,0,0,231.8,254,0,0,0,0,0,0,0,231.8,766,0,0.000692788,0.00117935,0.000668831,0.0160904,0.0035046,0.00094429,0.000377579,-0.000345192,-0.01531,0.00128921,0.000658874,0.0167697,-0.0205878,0.000867882,-0.000715218,-0.007453
18,8,0,0,0,0,0,0,231.8,254,0,0,0,0,0,0,0,231.8,766,0,8.2436e-05,7.30893e-05,0.000668831,0.0167007,0.00449642,0.000715408,0.000415726,0.000150719,0.00208504,0.000297394,0.000391846,0.0172656,-0.0206641,0.00117306,0.000467339,-0.00943665
18,9,0,0,0,0,0,0,231.8,254,0,0,0,0,0,0,0,231.8,766,0,-0.000146446,0.000797882,0.000439949,0.0156326,0.00590786,0.000867996,0.00117867,0.000379601,0.071627,0.000526275,-0.000790711,0.0182574,-0.0206641,0.000982323,0.000467339,-0.00878815
19,0,0,0,0,0,0,0,231.8,254,0,0,0,0,0,0,0,231.8,766,0,0.000692788,0.000759735,0.00116474,0.0167389,0.00792965,0.000257645,0.000682754,0.000455895,-0.0257241,0.00136551,0.000849609,0.0183718,-0.019863,0.00109676,0.00107769,-0.00840668
19,1,0,0,0,0,0,0,231.8,254,0,0,0,0,0,0,0,231.8,766,0,-0.00022274,0.000569,0.000668831,0.0170822,0.00934109,0.00147835,0.00121681,7.44248e-05,-0.00165337,0.00147995,0.0010022,0.0146334,-0.0197104,0.00166897,0.000810661,-0.00909332
19,2,0,0,0,0,0,0,231.8,254,0,0,0,0,0,0,0,231.8,766,0,0.0005402,0.00110306,0.000439949,0.0168533,0.00804409,0.00109688,0.00175087,0.000608482,0.0769294,0.000907745,0.000849609,0.0143283,-0.0204733,0.00151638,0.000619926,-0.00772003
19,3,0,0,0,0,0,0,231.8,254,0,0,0,0,0,0,0,231.8,766,0,0.000311318,0.0011412,0.00154621,0.0168533,0.00842556,0.000181351,0.000568314,-7.81631e-05,-0.026487,0.000945892,0.00046814,0.0120776,-0.0203589,0.00155453,0.000619926,-0.00852112
19,4,0,0,0,0,0,0,231.8,254,0,0,0,0,0,0,0,231.8,766,0,6.14207e-06,0.000263824,0.000783272,0.0165863,0.00594601,-0.000581589,-0.00126274,-0.000574074,0.000177689,0.00117477,0.000697021,0.011658,-0.0217322,0.000753441,-2.8572e-05,-0.0100089
19,5,0,0,0,0,0,0,231.8,254,0,0,0,0,0,0,0,231.8,766,0,0.000273171,0.000225677,0.00017292,0.0158233,0.00781521,0.00102058,-0.000232773,0.000570335,0.0921119,0.00071701,0.00058258,0.0127642,-0.0202826,0.000600853,0.00107769,-0.007453
19,6,0,0,0,0,0,0,231.8,254,0,0,0,0,0,0,0,231.8,766,0,-0.000299034,0.000225677,0.000668831,0.0163955,0.00808224,0.000181351,0.000835342,0.000150719,-0.0249612,0.000678863,0.000544433,0.0107806,-0.0205878,0.000448265,0.000162163,-0.0081015
19,7,0,0,0,0,0,0,231.8,254,0,0,0,0,0,0,0,231.8,766,0,0.000883522,0.000301971,0.000516243,0.0164337,0.0382565,0.00147835,0.000644607,0.000722923,-0.00211113,0.00170883,-0.000218506,0.0112002,-0.0204352,0.00163082,0.000810661,-0.00863556
19,8,0,0,0,0,0,0,231.8,254,0,0,0,0,0,0,0,231.8,766,0,0.000769082,0.000912323,0.000439949,0.0159378,0.0667904,0.0014402,0.000568314,0.000494041,0.0987495,0.000831451,0.000735168,0.014786,-0.0213507,0.00124935,0.00233654,-0.00829224
19,9,0,0,0,0,0,0,231.8,254,0,0,0,0,0,0,0,231.8,766,0,-0.000527916,0.000149383,0.000363655,0.0158615,0.0258587,0.000639114,0.00060646,-7.81631e-05,-0.0240075,0.000144806,-0.00162994,0.0108187,-0.0205496,0.000867882,0.000619926,-0.00855927
20,0,0,0,0,0,0,0,231.8,254,0,0,0,0,0,0,0,231.8,766,0,0.000196877,0.000454559,0.0010503,0.0163955,0.0157116,0.00121132,0.000568314,0.000532188,-0.0439965,0.00140366,-0.000790711,0.0122302,-0.0200919,0.00105862,0.000848808,-0.00699524
20,1,0,0,0,0,0,0,231.8,254,0,0,0,0,0,0,0,231.8,766,0,0.000845375,0.00110306,0.000478096,0.0164718,0.00907406,-0.000161972,0.000301285,0.000455895,-0.00691765,0.000411835,0.00123108,0.0150912,-0.0210455,0.000562706,0.00123028,-0.00936035
20,2,0,0,0,0,0,0,231.8,254,0,0,0,0,0,0,0,231.8,766,0,0.00126499,0.000836029,0.00116474,0.0167389,0.00262722,0.00155464,0.000873489,0.000455895,0.0431312,0.00113663,0.000620727,0.0136416,-0.0212363,0.000600853,0.000734367,-0.00875
20,3,0,0,0,0,0,0,231.8,254,0,0,0,0,0,0,0,231.8,766,0,0.00103611,0.000721588,0.00112659,0.0162429,-0.000729713,0.000372085,0.00110237,0.000341454,0.0412238,0.0002211,0.000811462,0.0127261,-0.0203207,0.000867882,0.00111584,-0.00852112
20,4,0,0,0,0,0,0,231.8,254,0,0,0,0,0,0,0,231.8,766,0,-0.000108299,-0.000651703,0.000363655,0.0154037,-0.00202671,0.000639114,-0.000194626,-0.00011631,-0.0502145,0.000564422,0.000620727,0.0089114,-0.0212363,0.00102047,0.000963249,-0.00913147
20,5,0,0,0,0,0,0,231.8,254,0,0,0,0,0,0,0,231.8,766,0,0.000273171,0.000607147,0.00101215,0.0157089,-0.00576511,0.00094429,0.000911636,0.000837364,0.0543464,0.000297394,0.000773315,0.0145953,-0.021427,-0.000123939,0.00107769,-0.00787262
20,6,0,0,0,0,0,0,231.8,254,0,0,0,0,0,0,0,231.8,766,0,0.000578347,0.000607147,0.00146992,0.0169296,-0.00977055,0.00159279,0.00121681,0.000722923,0.0343192,6.85118e-05,0.00115479,0.0172274,-0.0205878,0.00208858,0.00218395,-0.00867371
20,7,0,0,0,0,0,0,231.8,254,0,0,0,0,0,0,0,231.8,766,0,4.4289e-05,0.000263824,2.03323e-05,0.0165863,-0.0108005,0.000410232,0.000835342,0.000875511,-0.0473534,0.00178513,-2.77711e-05,0.0155871,-0.0207785,0.0018597,0.000848808,-0.00783447
20,8,0,0,0,0,0,0,231.8,254,0,0,0,0,0,0,0,231.8,766,0,0.000273171,0.00018753,0.000211067,0.0160904,-0.00793949,0.000715408,0.0019416,0.00026516,0.0614799,0.000106659,0.00058258,0.0181048,-0.02013,0.000562706,0.00172619,-0.00936035
20,9,0,0,0,0,0,0,231.8,254,0,0,0,0,0,0,0,231.8,766,0,0.000273171,0.000340118,0.000401802,0.0160904,-0.00717655,0.000486526,0.000797195,0.000532188,0.0455726,-0.000656281,8.66698e-05,0.0144809,-0.0208167,0.000753441,0.00168804,-0.00905518
21,0,0,0,0,0,0,0,231.8,254,0,0,0,0,0,0,0,231.8,766,0,0.00015873,0.000797882,0.000516243,0.0158615,-0.00679508,-0.00031456,0.000911636,0.000227013,-0.0515115,0.00071701,0.000620727,0.0111621,-0.02116,-9.49856e-06,0.00119213,-0.00863556
21,1,0,0,0,0,0,0,231.8,254,0,0,0,0,0,0,0,231.8,766,0,0.00126499,0.000797882,0.00192768,0.0162811,-0.00278965,0.000906143,0.00060646,0.000608482,0.063578,0.000602569,0.000544433,0.00841549,-0.0211981,0.000600853,0.000505486,-0.00977997
21,2,0,0,0,0,0,0,231.8,254,0,0,0,0,0,0,0,231.8,766,0,0.000616494,0.000645294,-0.00104778,0.0159378,-0.000844154,-0.000619736,0.000377579,0.000341454,0.0515998,-0.000389252,-0.000561829,0.0100177,-0.0215033,0.00025753,0.000658073,-0.0075293
21,3,0,0,0,0,0,0,231.8,254,0,0,0,0,0,0,0,231.8,766,0,0.000921669,0.000225677,0.000668831,0.0158615,0.00243649,0.00056282,0.00114052,0.000494041,-0.0673806,0.000755157,-0.000256653,0.00849178,-0.02116,0.000906029,0.000734367,-0.00730042
21,4,0,0,0,0,0,0,231.8,254,0,0,0,0,0,0,0,231.8,766,0,0.000235024,0.000378265,0.00017292,0.0161666,0.00548824,0.000829849,0.000911636,0.000455895,-0.0176751,0.00121292,-0.000332947,0.00833919,-0.0202063,0.000982323,0.00119213,-0.00863556
21,5,0,0,0,0,0,0,231.8,254,0,0,0,0,0,0,0,231.8,766,0,0.000883522,-0.000422821,0.000783272,0.0161666,0.0060223,0.00113502,0.00171272,0.000112572,0.00811226,0.00113663,0.00046814,0.0128787,-0.0213126,0.00178341,0.00111584,-0.00730042
21,6,0,0,0,0,0,0,231.8,254,0,0,0,0,0,0,0,231.8,766,0,0.000997963,0.000569,0.00108845,0.0158233,0.00590786,0.000181351,-8.0185e-05,0.000188866,0.144717,0.000411835,0.000697021,0.0184481,-0.0206641,-0.000123939,0.000238457,-0.00848297
21,7,0,0,0,0,0,0,231.8,254,0,0,0,0,0,0,0,231.8,766,0,-0.000260887,-0.000155793,0.00112659,0.0163574,0.00697597,0.000219498,0.000568314,0.000341454,0.180918,6.85118e-05,0.000162964,0.0191348,-0.0202063,0.00109676,0.000124016,-0.00791077
21,8,0,0,0,0,0,0,231.8,254,0,0,0,0,0,0,0,231.8,766,0,0.000463906,0.00110306,0.000706978,0.0168151,0.00949368,0.00163094,0.000911636,0.00110439,0.145022,0.0014418,0.00153625,0.0183718,-0.0203207,0.00124935,0.00210766,-0.00821594
21,9,0,0,0,0,0,0,231.8,254,0,0,0,0,0,0,0,231.8,766,0,0.00168461,0.00133194,0.000897713,0.017044,0.0105236,0.000524673,0.000949783,0.000913658,0.0666297,0.000526275,0.00191772,0.0178759,-0.0213889,-0.000162086,0.00149731,-0.00791077
22,0,0,0,0,0,0,0,231.8,254,0,0,0,0,0,0,0,231.8,766,0,0.000730935,0.000378265,0.000821419,0.017044,0.00922665,0.000906143,0.00098793,0.000455895,-0.110258,0.00128921,0.000925903,0.0177233,-0.0198248,0.00151638,0.000658073,-0.00871185
22,1,0,0,0,0,0,0,231.8,254,0,0,0,0,0,0,0,231.8,766,0,-0.000146446,-0.000117646,-9.41086e-05,0.0156326,0.00907406,2.87627e-05,0.00125496,0.00118069,-0.0555932,-0.000923309,0.000620727,0.0147479,-0.0217322,-9.49856e-06,0.00203136,-0.00943665
22,2,0,0,0,0,0,0,231.8,254,0,0,0,0,0,0,0,231.8,766,0,0.00015873,-0.00030838,-0.000399284,0.0161666,0.00846371,0.000181351,0.00106422,-7.81631e-05,0.0448478,0.000488129,-0.000714417,0.0172656,-0.0206259,0.000639,0.000391045,-0.00871185
22,3,0,0,0,0,0,0,231.8,254,0,0,0,0,0,0,0,231.8,766,0,0.00015873,0.000874176,0.000401802,0.0149078,0.00705227,0.000906143,0.00060646,7.44248e-05,-0.0784814,0.000106659,0.000429993,0.0116198,-0.0213507,0.0012112,0.0010014,-0.00791077
22,4,0,0,0,0,0,0,231.8,254,0,0,0,0,0,0,0,231.8,766,0,0.00107426,7.30893e-05,0.00143177,0.0170059,0.00762447,-9.38424e-06,0.00125496,0.00140957,-0.0495278,0.00106033,0.000849609,0.010094,-0.0208548,0.000753441,0.00115398,-0.00829224
22,5,0,0,0,0,0,0,231.8,254,0,0,0,0,0,0,0,231.8,766,0,0.0011124,0.00129379,0.00124104,0.0169677,0.0104473,0.000829849,0.000568314,0.00110439,0.0581992,0.000488129,0.00134552,0.0134127,-0.0210455,0.000371971,0.00134472,-0.00779633
22,6,0,0,0,0,0,0,231.8,254,0,0,0,0,0,0,0,231.8,766,0,0.0005402,0.000645294,0.000134773,0.0158233,0.00865444,0.000181351,0.000720901,-1.86916e-06,-0.064367,-0.000236664,0.0010022,0.0123065,-0.0214651,0.000639,0.00069622,-0.00852112
22,7,0,0,0,0,0,0,231.8,254,0,0,0,0,0,0,0,231.8,766,0,0.0005402,-7.94986e-05,0.00116474,0.0168533,0.00655636,0.000791702,0.000835342,0.000646629,-0.0782143,0.0014418,0.000925903,0.0136416,-0.0204352,0.000982323,0.000505486,-0.00852112
22,8,0,0,0,0,0,0,231.8,254,0,0,0,0,0,0,0,231.8,766,0,0.000196877,0.000759735,0.000592537,0.0168533,0.00640377,0.000600967,0.000148697,0.000570335,-0.0357949,0.000411835,-0.000599976,0.0179141,-0.0205878,0.000791588,0.00119213,-0.00733856
22,9,0,0,0,0,0,0,231.8,254,0,0,0,0,0,0,0,231.8,766,0,0.00103611,0.000416412,0.000325508,0.016777,0.00705227,0.000829849,0.00102608,0.000455895,0.0178016,0.000869598,0.000658874,0.0231021,-0.02013,0.00178341,0.00168804,-0.00798706
23,0,0,0,0,0,0,0,231.8,254,0,0,0,0,0,0,0,231.8,766,0,0.000845375,0.000301971,0.000783272,0.0163574,0.00598415,0.00105873,0.0013694,0.000913658,0.0157417,0.00071701,4.85228e-05,0.0223773,-0.0202063,0.00124935,0.00138287,-0.00737671
23,1,0,0,0,0,0,0,231.8,254,0,0,0,0,0,0,0,231.8,766,0,0.000235024,-0.000232087,0.000401802,0.0151367,0.00239834,-0.000848618,0.000530167,0.000608482,-0.068525,-0.00054184,-0.0015918,0.0156253,-0.0212363,0.000715294,0.00184063,-0.00844482
23,2,0,0,0,0,0,0,231.8,254,0,0,0,0,0,0,0,231.8,766,0,0.000387612,-7.94986e-05,0.000516243,0.0159759,-0.000233803,-0.000200119,-0.000385361,0.000150719,0.0384772,0.000297394,0.000277405,0.0123828,-0.0206641,0.000181236,0.00020031,-0.0081778
23,3,0,0,0,0,0,0,231.8,254,0,0,0,0,0,0,0,231.8,766,0,0.000273171,-0.000804291,0.000859566,0.0164337,0.00136837,0.000143204,0.000453873,0.000684776,0.021807,-8.40761e-05,0.0010022,0.0131839,-0.0212744,0.000524559,0.00115398,-0.00875
23,4,0,0,0,0,0,0,231.8,254,0,0,0,0,0,0,0,231.8,766,0,0.00107426,0.000492706,0.000897713,0.0172348,0.000834313,0.000715408,0.00049202,0.00133327,-0.0540292,0.00128921,0.000429993,0.0193637,-0.0191382,0.00109676,0.000963249,-0.00741486
23,5,0,0,0,0,0,0,231.8,254,0,0,0,0,0,0,0,231.8,766,0,0.000730935,0.000263824,0.00017292,0.0163192,0.0029324,-9.38424e-06,7.24029e-05,-7.81631e-05,0.0835288,-0.000656281,-6.59181e-05,0.0166934,-0.0212744,-0.000772438,-0.000257454,-0.00867371
23,6,0,0,0,0,0,0,231.8,254,0,0,0,0,0,0,0,231.8,766,0,0.00015873,0.000301971,5.84793e-05,0.0155944,0.00258907,0.000257645,0.000415726,0.000341454,0.0625861,0.000106659,0.000162964,0.0141375,-0.0207785,-0.000352821,0.000467339,-0.00798706
23,7,0,0,0,0,0,0,231.8,254,0,0,0,0,0,0,0,231.8,766,0,0.000463906,0.000530853,-0.000399284,0.0153656,0.0016354,0.000829849,0.000568314,7.44248e-05,-0.0683724,0.000755157,0.000162964,0.0142138,-0.021694,0.000295677,0.00103954,-0.00916962
23,8,0,0,0,0,0,0,231.8,254,0,0,0,0,0,0,0,231.8,766,0,0.00122685,-0.000117646,0.000592537,0.0155563,0.00503048,0.000257645,0.000377579,0.000112572,0.0926841,0.000106659,-0.000409241,0.0131839,-0.0208548,0.000715294,0.00069622,-0.00779633
23,9,0,0,0,0,0,0,231.8,254,0,0,0,0,0,0,0,231.8,766,0,0.00134129,0.000759735,5.84793e-05,0.017044,0.00739559,0.00121132,0.000453873,0.000417748,0.0731528,0.000602569,0.000315552,0.0147479,-0.0194815,0.00155453,0.00115398,-0.00936035
24,0,0,0,0,0,0,0,231.8,254,0,0,0,0,0,0,0,231.8,766,0,0.000845375,0.000607147,0.000974007,0.0163192,0.00876888,0.00136391,0.0013694,0.000837364,-0.0887811,-0.000236664,0.000162964,0.0144046,-0.0215414,6.67954e-05,0.000429192,-0.00787262
24,1,0,0,0,0,0,0,231.8,254,0,0,0,0,0,0,0,231.8,766,0,0.000425759,0.0011412,0.000325508,0.0162811,0.00640377,0.00094429,0.000415726,0.000379601,-0.0204598,0.00117477,-0.00113403,0.012192,-0.0197104,0.000829735,0.000505486,-0.00760559
24,2,0,0,0,0,0,0,231.8,254,0,0,0,0,0,0,0,231.8,766,0,0.0005402,0.000721588,0.000706978,0.0168533,0.00800594,0.00102058,0.000835342,0.00171474,0.00979073,0.000602569,0.0010022,0.0138705,-0.0214651,0.00144009,0.00145916,-0.00783447
24,3,0,0,0,0,0,0,231.8,254,0,0,0,0,0,0,0,231.8,766,0,0.000387612,0.000263824,0.000363655,0.0167389,0.00834927,0.000906143,0.000224991,0.00106625,0.106379,0.000335541,0.000658874,0.0162738,-0.0205496,-4.76455e-05,0.000772514,-0.00707153
24,4,0,0,0,0,0,0,231.8,254,0,0,0,0,0,0,0,231.8,766,0,0.000196877,0.00129379,0.00146992,0.0166244,0.00998959,0.00105873,0.000224991,-0.00011631,-0.0452172,0.00205215,0.000773315,0.0138324,-0.0194434,0.00132565,0.00058178,-0.00783447
24,5,0,0,0,0,0,0,231.8,254,0,0,0,0,0,0,0,231.8,766,0,-0.000260887,-0.000422821,0.000592537,0.0162811,0.0100277,0.00056282,0.000873489,0.000455895,-0.00462883,0.000335541,-0.000867005,0.0165026,-0.0205878,0.000639,0.000734367,-0.00840668
24,6,0,0,0,0,0,0,231.8,254,0,0,0,0,0,0,0,231.8,766,0,0.000502053,0.000759735,2.03323e-05,0.0156707,0.00743374,-0.000390854,0.000453873,0.00106625,0.110461,0.000297394,-0.000943298,0.0153964,-0.0216177,0.000295677,0.000429192,-0.00672821
24,7,0,0,0,0,0,0,231.8,254,0,0,0,0,0,0,0,231.8,766,0,0.000311318,0.000530853,0.000783272,0.0158233,0.00464901,0.000829849,0.00049202,0.00121883,-0.0449502,0.000564422,0.000697021,0.0170749,-0.0207022,0.000753441,0.00134472,-0.00836853
24,8,0,0,0,0,0,0,231.8,254,0,0,0,0,0,0,0,231.8,766,0,0.000845375,0.00133194,9.66262e-05,0.0155563,0.00281796,0.000677261,0.000682754,0.000684776,-0.00527733,0.00117477,4.85228e-05,0.0159686,-0.0204352,0.00124935,0.00149731,-0.00699524
24,9,0,0,0,0,0,0,231.8,254,0,0,0,0,0,0,0,231.8,766,0,0.000502053,0.000836029,2.03323e-05,0.0166244,0.00201687,0.000715408,0.00049202,0.000608482,0.125147,0.000602569,4.85228e-05,0.0142138,-0.0205115,0.000867882,0.00241283,-0.00821594
25,0,0,0,0,0,0,0,231.8,254,0,0,0,0,0,0,0,231.8,766,0,-0.000146446,0.000492706,0.000821419,0.0157089,0.00312313,0.00113502,0.000301285,0.00076107,-0.0446069,0.000259247,0.000887756,0.0126879,-0.0213507,0.000639,0.000886955,-0.00787262
25,1,0,0,0,0,0,0,231.8,254,0,0,0,0,0,0,0,231.8,766,0,0.000959816,0.000607147,0.000859566,0.0166244,0.00277981,0.000753555,0.000377579,0.000417748,-0.00741356,0.000678863,0.00126923,0.0141757,-0.0208167,0.000639,-6.6719e-05,-0.00886444
25,2,0,0,0,0,0,0,231.8,254,0,0,0,0,0,0,0,231.8,766,0,0.000578347,0.00018753,0.000706978,0.0168151,0.00239834,0.000600967,-4.2038e-05,0.000417748,0.128161,0.000297394,-0.0002948,0.0185244,-0.0202826,0.000295677,0.000276604,-0.00890259
25,3,0,0,0,0,0,0,231.8,254,0,0,0,0,0,0,0,231.8,766,0,-0.00102383,-4.13517e-05,0.000134773,0.0161666,-0.00111118,0.000295792,0.000339432,-4.00161e-05,-0.0435769,-7.78213e-06,0.000201111,0.0157016,-0.0209692,0.000791588,0.000238457,-0.00806335
25,4,0,0,0,0,0,0,231.8,254,0,0,0,0,0,0,0,231.8,766,0,0.00015873,0.000301971,0.000516243,0.0158996,-0.00240818,0.000715408,-8.0185e-05,0.000494041,-0.0688302,-0.000312958,0.000162964,0.0151675,-0.0206259,0.000371971,4.77219e-05,-0.00905518
25,5,0,0,0,0,0,0,231.8,254,0,0,0,0,0,0,0,231.8,766,0,0.000807228,0.000836029,0.000478096,0.0167389,0.000300255,0.000410232,0.000873489,0.000951805,-0.01428,0.000335541,0.00046814,0.0170367,-0.0199011,0.000791588,0.000772514,-0.00794891
25,6,0,0,0,0,0,0,231.8,254,0,0,0,0,0,0,0,231.8,766,0,0.00126499,0.00110306,0.000516243,0.0163192,-0.000233803,0.00136391,3.42559e-05,0.00110439,0.0622428,0.0002211,-0.00117218,0.0152056,-0.0205878,0.000562706,0.000238457,-0.00787262
25,7,0,0,0,0,0,0,231.8,254,0,0,0,0,0,0,0,231.8,766,0,0.000692788,0.000836029,0.000745125,0.0163955,-0.00332371,0.000677261,0.000415726,0.00121883,0.0488151,0.00140366,0.00237549,0.0120395,-0.0209311,0.00144009,0.00252728,-0.00787262
25,8,0,0,0,0,0,0,231.8,254,0,0,0,0,0,0,0,231.8,766,0,0.0005402,0.000530853,0.000630684,0.0164337,-0.000996742,0.0014402,0.000759048,0.000341454,-0.0766885,0.00174698,0.000773315,0.0120776,-0.0204733,0.00124935,0.000352898,-0.00798706
25,9,0,0,0,0,0,0,231.8,254,0,0,0,0,0,0,0,231.8,766,0,0.000730935,0.00159897,0.000745125,0.0158996,0.000529137,0.000295792,-0.00160606,0.00121883,0.0831474,3.03648e-05,-0.000447388,0.0128024,-0.0216559,-0.000314674,0.00123028,-0.00756744
26,0,0,0,0,0,0,0,231.8,254,0,0,0,0,0,0,0,231.8,766,0,-0.000680503,-0.000384674,-1.78147e-05,0.0160904,0.000567284,-0.000238266,-0.000690537,-0.000421486,0.0372184,0.00136551,0.000506287,0.0143664,-0.0205878,0.000600853,0.000314751,-0.00833038
26,1,0,0,0,0,0,0,231.8,254,0,0,0,0,0,0,0,231.8,766,0,0.000387612,-0.00019394,-0.000895195,0.0155182,0.00201687,0.00109688,0.000415726,0.000455895,-0.0754678,0.000831451,-0.00128662,0.0116961,-0.0211218,0.000639,0.000314751,-0.00951294
26,2,0,0,0,0,0,0,231.8,254,0,0,0,0,0,0,0,231.8,766,0,0.000807228,0.00106491,0.00093586,0.0167007,0.000872459,0.00056282,0.000759048,0.00125698,0.0857032,0.000259247,0.000162964,0.0128024,-0.0202444,0.000486412,0.000505486,-0.00844482
26,3,0,0,0,0,0,0,231.8,254,0,0,0,0,0,0,0,231.8,766,0,0.000502053,0.00117935,0.000897713,0.0163574,0.000338402,0.00159279,0.000682754,0.000570335,0.05633,0.00189957,-0.000638123,0.0128787,-0.0202063,0.0018597,0.000543633,-0.00802521
26,4,0,0,0,0,0,0,231.8,254,0,0,0,0,0,0,0,231.8,766,0,6.14207e-06,0.000111236,0.000287361,0.0159378,-0.00320927,0.000715408,0.000301285,0.000494041,-0.0777566,0.00163254,0.000162964,0.0114291,-0.0203589,0.000104942,-0.00018116,-0.00806335
26,5,0,0,0,0,0,0,231.8,254,0,0,0,0,0,0,0,231.8,766,0,0.000311318,0.000645294,9.66262e-05,0.0158233,-0.00565067,0.000410232,-0.00027092,-0.000459633,0.0850929,3.03648e-05,0.000277405,0.0137179,-0.0204733,0.000562706,-0.000333748,-0.00974182
26,6,0,0,0,0,0,0,231.8,254,0,0,0,0,0,0,0,231.8,766,0,0.000730935,0.00133194,0.00173695,0.0147552,-0.00710026,0.00128761,0.000759048,0.00114254,0.0654472,0.00113663,-0.000790711,0.00715664,-0.0215796,0.00025753,0.00123028,-0.00737671
26,7,0,0,0,0,0,0,231.8,254,0,0,0,0,0,0,0,231.8,766,0,0.000845375,0.0012175,0.00055439,0.0169296,-0.00660435,0.000791702,0.000720901,0.0016766,-0.0985467,0.00147995,0.0010022,0.00620296,-0.0215414,0.00113491,0.00069622,-0.00894073
26,8,0,0,0,0,0,0,231.8,254,0,0,0,0,0,0,0,231.8,766,0,0.000578347,0.000569,0.000325508,0.0159378,-0.00706211,0.00121132,0.000186844,0.00026516,-0.0286233,0.00113663,-0.000561829,0.00936916,-0.0202826,0.000829735,0.00103954,-0.00722412
26,9,0,0,0,0,0,0,231.8,254,0,0,0,0,0,0,0,231.8,766,0,0.000235024,0.00125565,0.00093586,0.0162811,-0.00458256,0.00178352,0.000377579,-0.000192604,0.00296242,0.000373688,0.000277405,0.00521114,-0.0208929,0.000448265,0.00020031,-0.00726227
27,0,0,0,0,0,0,0,231.8,254,0,0,0,0,0,0,0,231.8,766,0,0.00103611,-7.94986e-05,0.000668831,0.0158615,-0.00221745,0.000715408,0.00060646,0.000608482,0.100313,0.00140366,0.000849609,0.00441006,-0.0199393,0.0012112,0.000543633,-0.00886444
27,1,0,0,0,0,0,0,231.8,254,0,0,0,0,0,0,0,231.8,766,0,-0.000909385,0.000645294,0.000745125,0.0162429,-0.000615272,0.000867996,0.00011055,0.00026516,-0.0520455,0.00125107,-0.000523682,0.0167697,-0.0210455,0.000753441,0.000467339,-0.00794891
27,2,0,0,0,0,0,0,231.8,254,0,0,0,0,0,0,0,231.8,766,0,0.000769082,7.30893e-05,-0.000628166,0.0157089,3.32261e-05,0.000410232,0.000568314,0.000799217,-0.0106942,-0.00016037,-0.00105774,0.0232165,-0.0218085,0.000219383,0.000352898,-0.00852112
27,3,0,0,0,0,0,0,231.8,254,0,0,0,0,0,0,0,231.8,766,0,0.00168461,0.00152267,0.00120289,0.017044,0.000567284,0.00140205,0.00129311,0.000570335,0.105654,0.000449982,8.66698e-05,0.0205081,-0.0210837,0.0012112,0.000238457,-0.00730042
27,4,0,0,0,0,0,0,231.8,254,0,0,0,0,0,0,0,231.8,766,0,-7.01519e-05,0.00175156,0.000783272,0.0165863,0.000452843,0.00113502,-0.000194626,0.000799217,-0.0478875,0.00132736,0.00058258,0.0169986,-0.0209692,0.00182156,0.00187878,-0.00829224
27,5,0,0,0,0,0,0,231.8,254,0,0,0,0,0,0,0,231.8,766,0,4.4289e-05,0.00148453,-0.000132256,0.0168151,0.000452843,0.00159279,-0.000576096,0.000227013,-0.00966423,0.000831451,-0.00067627,0.0200885,-0.0208929,0.000181236,0.000810661,-0.00695709
27,6,0,0,0,0,0,0,231.8,254,0,0,0,0,0,0,0,231.8,766,0,-0.000566063,0.000721588,-0.000513725,0.0153274,0.00388607,0.00056282,0.000148697,0.00026516,0.120035,0.000945892,0.000201111,0.0200885,-0.0221899,2.86484e-05,0.000124016,-0.00821594
27,7,0,0,0,0,0,0,231.8,254,0,0,0,0,0,0,0,231.8,766,0,0.000997963,7.30893e-05,0.000363655,0.0162429,0.00560268,0.000600967,0.000453873,0.000684776,-0.0471246,0.000945892,0.000124817,0.0195544,-0.0202444,0.000677147,0.000619926,-0.00871185
27,8,0,0,0,0,0,0,231.8,254,0,0,0,0,0,0,0,231.8,766,0,-0.000566063,0.000263824,0.000630684,0.0171585,0.00510677,0.000829849,0.0013694,0.000303307,-0.00932091,0.00106033,0.00058258,0.016846,-0.0206259,0.000524559,0.00149731,-0.00676636
27,9,0,0,0,0,0,0,231.8,254,0,0,0,0,0,0,0,231.8,766,0,0.0011887,0.0012175,0.00093586,0.0170059,0.00640377,0.00170723,0.00102608,0.000951805,0.125033,0.00159439,0.00153625,0.0182574,-0.0191763,0.000944176,0.000543633,-0.00848297
28,0,0,0,0,0,0,0,231.8,254,0,0,0,0,0,0,0,231.8,766,0,0.000921669,0.000607147,-0.000284843,0.01651,0.00426754,0.000867996,0.000530167,-1.86916e-06,-0.0447976,0.0002211,0.000315552,0.0183337,-0.0210455,0.00109676,0.000314751,-0.00768188
28,1,0,0,0,0,0,0,231.8,254,0,0,0,0,0,0,0,231.8,766,0,6.14207e-06,0.000874176,0.000974007,0.0164718,0.00247463,0.000867996,0.000530167,0.00026516,-0.068525,0.00159439,0.000315552,0.0168841,-0.0212744,0.000829735,0.00138287,-0.007453
28,2,0,0,0,0,0,0,231.8,254,0,0,0,0,0,0,0,231.8,766,0,0.000616494,0.00106491,0.000668831,0.0162811,0.0035046,0.000677261,7.24029e-05,-4.00161e-05,-0.0157296,0.000640716,0.000811462,0.0137942,-0.0212363,0.000600853,0.00119213,-0.00951294
28,3,0,0,0,0,0,0,231.8,254,0,0,0,0,0,0,0,231.8,766,0,-0.000604209,3.49423e-05,0.000668831,0.0158615,0.0028561,0.000677261,0.00110237,0.000417748,0.0601829,0.000755157,0.000925903,0.0117343,-0.0195959,0.000906029,-0.000257454,-0.00791077
28,4,0,0,0,0,0,0,231.8,254,0,0,0,0,0,0,0,231.8,766,0,0.00103611,0.000721588,0.00120289,0.0165863,0.00323757,0.000715408,0.00011055,0.000684776,0.0475562,0.000488129,0.000620727,0.0155108,-0.0209692,0.00140194,0.00138287,-0.00897888
28,5,0,0,0,0,0,0,231.8,254,0,0,0,0,0,0,0,231.8,766,0,-0.000756797,0.000301971,5.84793e-05,0.0164337,0.00323757,0.000295792,-0.000576096,-0.000764809,-0.0782906,-0.000122223,0.000277405,0.016083,-0.0212363,0.00025753,-0.00117298,-0.00878815
28,6,0,0,0,0,0,0,231.8,254,0,0,0,0,0,0,0,231.8,766,0,0.000387612,-7.94986e-05,-0.00032299,0.0167007,0.00171169,0.00105873,0.00098793,0.000455895,0.0771964,0.0002211,0.000239258,0.0195544,-0.0202063,0.000448265,-0.000219307,-0.0075293
28,7,0,0,0,0,0,0,231.8,254,0,0,0,0,0,0,0,231.8,766,0,0.000463906,0.000645294,-0.000132256,0.0158233,-0.000424538,-0.000238266,0.000224991,0.000112572,0.0425208,-0.00134293,-0.000180359,0.0176852,-0.022457,2.86484e-05,-0.000143013,-0.00882629
28,8,0,0,0,0,0,0,231.8,254,0,0,0,0,0,0,0,231.8,766,0,-0.00022274,-0.000384674,5.84793e-05,0.0158233,3.32261e-05,-4.75312e-05,-0.000156479,-0.00099369,-0.0740945,0.00106033,1.03759e-05,0.0205462,-0.0210455,0.000639,0.0010014,-0.00882629
28,9,0,0,0,0,0,0,231.8,254,0,0,0,0,0,0,0,231.8,766,0,0.000502053,3.49423e-05,-0.000399284,0.0154419,0.0009869,0.000524673,-0.000156479,0.000379601,0.0852836,0.000488129,0.000162964,0.0221865,-0.0210074,0.00025753,0.000391045,-0.00871185
29,0,0,0,0,0,0,0,231.8,254,0,0,0,0,0,0,0,231.8,766,0,0.00149387,0.000530853,-0.000284843,0.016777,0.00522121,0.00056282,0.00163643,0.00076107,0.0566734,-0.000122223,0.00058258,0.0243228,-0.0206641,0.000448265,0.00142101,-0.0102759
29,1,0,0,0,0,0,0,231.8,254,0,0,0,0,0,0,0,231.8,766,0,0.000311318,0.000759735,0.00116474,0.0161666,0.00174984,0.00140205,0.000301285,0.000570335,-0.0757348,0.000831451,0.000391846,0.014786,-0.0199011,0.000371971,0.00103954,-0.0075293
29,2,0,0,0,0,0,0,231.8,254,0,0,0,0,0,0,0,231.8,766,0,0.000120583,0.000988617,-9.41086e-05,0.0159759,0.00190243,6.69097e-05,-0.000423508,0.000722923,0.0859321,0.000449982,0.000315552,0.0150149,-0.0208548,0.000677147,-0.000486336,-0.00844482
29,3,0,0,0,0,0,0,231.8,254,0,0,0,0,0,0,0,231.8,766,0,0.000769082,-0.000117646,-0.00032299,0.0162811,0.00438198,0.000410232,-4.2038e-05,-0.00011631,0.0641502,0.000564422,-0.000638123,0.0169604,-0.02116,0.000524559,-0.000333748,-0.00836853
29,4,0,0,0,0,0,0,231.8,254,0,0,0,0,0,0,0,231.8,766,0,0.000463906,0.00095047,-1.78147e-05,0.0165481,0.00659451,0.000791702,0.00011055,0.000227013,-0.0969827,0.000678863,0.000277405,0.0156253,-0.0201682,0.000791588,0.000352898,-0.00905518
29,5,0,0,0,0,0,0,231.8,254,0,0,0,0,0,0,0,231.8,766,0,0.000883522,0.00018753,9.66262e-05,0.0166626,0.00827297,0.00105873,0.00140755,0.000532188,-0.0268304,0.00109848,0.000201111,0.0146716,-0.0203207,0.0012112,0.00069622,-0.00943665
29,6,0,0,0,0,0,0,231.8,254,0,0,0,0,0,0,0,231.8,766,0,0.000120583,0.000645294,5.84793e-05,0.0162429,0.009837,0.000639114,0.000644607,-0.00011631,0.00326759,-0.000236664,0.00119293,0.0137179,-0.0217322,0.000829735,0.00107769,-0.00836853
29,7,0,0,0,0,0,0,231.8,254,0,0,0,0,0,0,0,231.8,766,0,0.00122685,0.00148453,0.000706978,0.0155944,0.0123166,0.00105873,0.0013694,0.000532188,0.100848,0.000411835,0.00126923,0.0156253,-0.021427,0.00117306,0.00138287,-0.00840668
29,8,0,0,0,0,0,0,231.8,254,0,0,0,0,0,0,0,231.8,766,0,0.000845375,0.000988617,0.00120289,0.0175781,0.0102948,0.00094429,0.00148384,0.00106625,-0.0486886,0.00109848,0.00130737,0.0110095,-0.0191763,0.00136379,0.00218395,-0.00840668
29,9,0,0,0,0,0,0,231.8,254,0,0,0,0,0,0,0,231.8,766,0,0.00145573,0.00110306,0.000821419,0.016777,0.00564083,0.00132576,0.00098793,0.000150719,-0.00733726,0.00117477,0.000735168,0.010628,-0.0208548,0.00147823,0.00161175,-0.00791077
30,0,0,0,0,0,0,0,231.8,254,0,0,0,0,0,0,0,231.8,766,0,0.000883522,0.000988617,0.00139362,0.0174255,0.00529751,0.000524673,0.00102608,-0.000192604,0.105006,0.00147995,0.0028714,0.0144809,-0.0195197,0.00113491,0.000238457,-0.00993256
30,1,0,0,0,0,0,0,231.8,254,0,0,0,0,0,0,0,231.8,766,0,0.000578347,0.000569,0.000630684,0.017044,0.00392422,0.00117317,0.000911636,0.000150719,-0.046972,0.00163254,0.00123108,0.0135653,-0.0198248,0.00140194,0.000391045,-0.00894073
30,2,0,0,0,0,0,0,231.8,254,0,0,0,0,0,0,0,231.8,766,0,0.000463906,0.000569,0.00124104,0.0169677,0.00247463,0.000372085,0.00106422,0.0010281,-0.00878685,0.00071701,0.000620727,0.0161975,-0.0204733,-0.00023838,0.0015736,-0.00806335
30,3,0,0,0,0,0,0,231.8,254,0,0,0,0,0,0,0,231.8,766,0,6.14207e-06,-0.000117646,0.000249214,0.0160904,0.00552639,0.000906143,0.00011055,3.62778e-05,0.121218,0.000678863,0.00176514,0.0192874,-0.0209692,0.00155453,0.00111584,-0.00890259
30,4,0,0,0,0,0,0,231.8,254,0,0,0,0,0,0,0,231.8,766,0,0.00141758,0.000340118,0.000897713,0.0163192,0.010104,0.00105873,-3.89107e-06,0.000303307,-0.0455224,0.000755157,0.000658874,0.0150912,-0.0210837,0.000944176,-0.000410042,-0.0075293
30,5,0,0,0,0,0,0,231.8,254,0,0,0,0,0,0,0,231.8,766,0,0.000387612,-0.000918732,0.000478096,0.0161285,0.00621304,0.000105057,0.000224991,0.000455895,-0.00909203,0.0002211,0.000735168,0.0151675,-0.0207404,0.000600853,0.000772514,-0.00962738
30,6,0,0,0,0,0,0,231.8,254,0,0,0,0,0,0,0,231.8,766,0,0.000120583,0.000263824,0.000516243,0.0148315,0.00636562,-0.000352707,0.000415726,-0.00011631,0.124689,0.000640716,-0.000332947,0.0144427,-0.0219611,0.000448265,0.00020031,-0.00783447
30,7,0,0,0,0,0,0,231.8,254,0,0,0,0,0,0,0,231.8,766,0,0.00187534,0.00110306,0.00101215,0.0161666,0.0078915,0.000677261,0.00110237,0.000227013,-0.0429665,0.000984039,0.000887756,0.0161212,-0.0205878,0.00147823,0.0015736,-0.00993256
30,8,0,0,0,0,0,0,231.8,254,0,0,0,0,0,0,0,231.8,766,0,8.2436e-05,0.00106491,-0.000246697,0.0162429,0.00564083,0.000524673,0.00060646,7.44248e-05,-0.0677621,0.000564422,-6.59181e-05,0.0169604,-0.0206641,0.00117306,0.000543633,-0.00875
30,9,0,0,0,0,0,0,231.8,254,0,0,0,0,0,0,0,231.8,766,0,0.00130314,0.000454559,0.00116474,0.0167007,0.00854,-8.56782e-05,0.00060646,0.000646629,-0.0144707,0.000488129,0.00126923,0.016083,-0.0206641,0.000829735,0.000925102,-0.00875
31,0,0,0,0,0,0,0,231.8,254,0,0,0,0,0,0,0,231.8,766,0,-0.000337181,0.000111236,0.000363655,0.0163192,0.00987514,0.00094429,0.00049202,0.00026516,0.0599158,0.000755157,0.00161255,0.0127642,-0.0208167,0.000867882,0.000276604,-0.00970367
31,1,0,0,0,0,0,0,231.8,254,0,0,0,0,0,0,0,231.8,766,0,0.000502053,0.000301971,0.000516243,0.0156707,0.00751003,0.000677261,0.000797195,-0.000154457,0.0480521,0.000106659,-0.000104065,0.0112765,-0.0215033,0.00102047,0.00058178,-0.00775818
31,2,0,0,0,0,0,0,231.8,254,0,0,0,0,0,0,0,231.8,766,0,0.00122685,0.00144638,0.00173695,0.0175399,0.00644192,0.00136391,0.00110237,0.000875511,-0.0749718,0.00117477,0.00176514,0.00879696,-0.0197104,0.00166897,0.00195507,-0.00897888
31,3,0,0,0,0,0,0,231.8,254,0,0,0,0,0,0,0,231.8,766,0,-0.000299034,-0.000956879,0.000478096,0.0162811,0.0060223,0.000181351,-0.000347214,-1.86916e-06,0.0779594,0.000297394,-0.000142212,0.0123828,-0.021427,0.000944176,4.77219e-05,-0.00875
31,4,0,0,0,0,0,0,231.8,254,0,0,0,0,0,0,0,231.8,766,0,-7.01519e-05,-0.000232087,9.66262e-05,0.0162811,0.00640377,0.000486526,0.000263138,-0.000459633,0.0419868,0.00106033,-6.59181e-05,0.0165408,-0.0210837,0.000982323,-0.000371895,-0.0100851
31,5,0,0,0,0,0,0,231.8,254,0,0,0,0,0,0,0,231.8,766,0,0.000425759,0.000530853,-0.000551872,0.0164718,0.00556454,0.000410232,0.00167458,0.0010281,-0.0732171,0.0002211,0.000429993,0.0206988,-0.0195959,0.00102047,0.000925102,-0.00840668
31,6,0,0,0,0,0,0,231.8,254,0,0,0,0,0,0,0,231.8,766,0,0.000692788,0.00110306,0.0016988,0.0172348,0.00369534,0.00113502,0.00171272,0.000913658,0.0846351,0.000182953,0.000773315,0.0192111,-0.0206641,0.00151638,0.000467339,-0.00852112
31,7,0,0,0,0,0,0,231.8,254,0,0,0,0,0,0,0,231.8,766,0,0.000387612,0.000225677,0.000859566,0.0160522,0.00010952,0.00109688,0.000759048,-0.000268898,0.056063,0.000793304,0.00058258,0.0171511,-0.0212363,0.000829735,0.000925102,-0.0081015
31,8,0,0,0,0,0,0,231.8,254,0,0,0,0,0,0,0,231.8,766,0,0.000463906,0.000301971,0.000134773,0.0163955,0.00316128,-0.000963059,0.000415726,0.000837364,-0.0751244,0.0015181,0.00153625,0.0150149,-0.021694,-0.00061985,0.000772514,-0.00794891
31,9,0,0,0,0,0,0,231.8,254,0,0,0,0,0,0,0,231.8,766,0,0.00164646,0.00133194,0.00101215,0.0169296,0.0105999,0.00147835,0.00102608,0.000837364,0.0856651,0.000945892,0.00104034,0.0136798,-0.0202826,0.00155453,0.00103954,-0.00798706
32,0,0,0,0,0,0,0,231.8,254,0,0,0,0,0,0,0,231.8,766,0,0.0005402,0.000416412,0.0010503,0.0170822,0.0175045,0.000181351,0.00106422,0.000532188,0.0657142,0.00117477,0.00058258,0.0127642,-0.02116,0.000448265,0.00153545,-0.00791077
32,1,0,0,0,0,0,0,231.8,254,0,0,0,0,0,0,0,231.8,766,0,0.00141758,0.000149383,0.000630684,0.01651,0.0141476,0.000791702,0.000263138,0.000684776,-0.0958001,0.000678863,-2.77711e-05,0.014252,-0.0209311,0.000791588,-0.000524483,-0.00878815
32,2,0,0,0,0,0,0,231.8,254,0,0,0,0,0,0,0,231.8,766,0,0.00130314,0.00095047,-0.000513725,0.0165481,0.0116299,0.00140205,0.00129311,0.00121883,-0.0259911,0.000449982,4.85228e-05,0.0105136,-0.0198248,0.000944176,0.00191692,-0.00783447
32,3,0,0,0,0,0,0,231.8,254,0,0,0,0,0,0,0,231.8,766,0,0.00145573,0.000759735,0.000974007,0.0163955,0.00934109,0.000906143,0.000759048,0.000608482,0.00406868,0.000907745,-0.000104065,0.0102465,-0.0219611,0.0012875,0.00214581,-0.00855927
32,4,0,0,0,0,0,0,231.8,254,0,0,0,0,0,0,0,231.8,766,0,0.000769082,0.000607147,0.000668831,0.016777,0.0101422,0.000715408,0.000148697,0.000455895,0.0993598,0.0020903,0.000391846,0.0170749,-0.0203589,0.00102047,8.58689e-05,-0.00665192
32,5,0,0,0,0,0,0,231.8,254,0,0,0,0,0,0,0,231.8,766,0,4.4289e-05,3.49423e-05,0.000211067,0.0161666,0.0125073,0.000143204,-0.00027092,0.000341454,-0.0501382,0.000488129,0.000697021,0.0200122,-0.0210074,0.000639,0.0010014,-0.00844482
32,6,0,0,0,0,0,0,231.8,254,0,0,0,0,0,0,0,231.8,766,0,0.000769082,0.000607147,0.00127918,0.0158996,0.0122021,0.00102058,0.000339432,0.000837364,-0.00680321,0.000793304,0.000925903,0.0169223,-0.0208929,0.000562706,-0.000410042,-0.00829224
32,7,0,0,0,0,0,0,231.8,254,0,0,0,0,0,0,0,231.8,766,0,0.0005402,0.000797882,0.000859566,0.0170822,0.00846371,0.000867996,-0.000156479,0.000379601,0.103175,0.0002211,0.000658874,0.00856808,-0.0203207,0.000944176,0.00138287,-0.00848297
32,8,0,0,0,0,0,0,231.8,254,0,0,0,0,0,0,0,231.8,766,0,0.000997963,0.00018753,0.000859566,0.0165863,0.00621304,0.00109688,0.000644607,0.000455895,-0.0490701,0.000793304,0.00142181,0.00791958,-0.0206641,0.00105862,0.00145916,-0.00844482
32,9,0,0,0,0,0,0,231.8,254,0,0,0,0,0,0,0,231.8,766,0,0.000654641,0.00102676,9.66262e-05,0.0164337,0.00400051,0.00163094,0.00213234,0.000532188,-0.00592583,0.00109848,0.000544433,0.00418118,-0.0210455,0.00132565,0.00107769,-0.00707153
33,0,0,0,0,0,0,0,231.8,254,0,0,0,0,0,0,0,231.8,766,0,0.00130314,0.00117935,-0.000437431,0.0169677,0.00606045,0.000639114,0.000797195,0.000989952,0.118967,0.000411835,-0.000256653,0.00536373,-0.02013,0.001936,0.00134472,-0.00775818
33,1,0,0,0,0,0,0,231.8,254,0,0,0,0,0,0,0,231.8,766,0,0.000730935,0.000721588,0.000974007,0.0167389,0.00316128,0.000906143,0.000911636,0.000837364,-0.0443398,0.00109848,0.00104034,0.00872066,-0.0202826,0.00124935,0.00111584,-0.00836853
33,2,0,0,0,0,0,0,231.8,254,0,0,0,0,0,0,0,231.8,766,0,-0.000184593,0.000149383,0.000516243,0.0161285,0.00190243,0.000448379,-0.000957565,-0.000230751,-0.00951164,-7.78213e-06,-0.000371094,0.0102465,-0.0212744,-0.00023838,-6.6719e-05,-0.00695709
33,3,0,0,0,0,0,0,231.8,254,0,0,0,0,0,0,0,231.8,766,0,0.000235024,0.000645294,-1.78147e-05,0.0164337,-0.00118748,0.000715408,0.000301285,0.00106625,0.123659,-0.000312958,-0.000180359,0.0122302,-0.02116,0.00147823,0.00168804,-0.00913147
33,4,0,0,0,0,0,0,231.8,254,0,0,0,0,0,0,0,231.8,766,0,0.000616494,0.000836029,0.000859566,0.0169677,0.000529137,0.00113502,0.000568314,0.000570335,-0.0416695,0.000793304,0.000735168,0.0136416,-0.0200537,0.00155453,0.000238457,-0.00905518
33,5,0,0,0,0,0,0,231.8,254,0,0,0,0,0,0,0,231.8,766,0,0.000463906,0.00102676,0.000211067,0.0158615,0.000262108,0.00056282,0.000759048,0.000150719,-0.0661217,0.000182953,0.000315552,0.014786,-0.0211218,0.000906029,0.00123028,-0.00890259
33,6,0,0,0,0,0,0,231.8,254,0,0,0,0,0,0,0,231.8,766,0,0.00122685,0.000301971,0.000859566,0.0153274,0.000643578,0.000867996,0.0013694,0.00114254,-0.0149285,0.000869598,0.000735168,0.0103228,-0.0208929,0.000715294,0.00119213,-0.0068045
33,7,0,0,0,0,0,0,231.8,254,0,0,0,0,0,0,0,231.8,766,0,-0.000146446,0.000874176,0.000859566,0.0156707,0.000796166,0.000257645,0.000568314,0.000646629,0.0604499,0.000488129,1.03759e-05,0.0107806,-0.0204352,0.00109676,0.00138287,-0.00947479
33,8,0,0,0,0,0,0,231.8,254,0,0,0,0,0,0,0,231.8,766,0,0.000235024,0.00110306,0.000783272,0.0171203,-0.000500832,0.00121132,0.000949783,0.00152401,0.0472511,0.0014418,0.00130737,0.0169604,-0.0197867,0.00178341,0.00103954,-0.00848297
33,9,0,0,0,0,0,0,231.8,254,0,0,0,0,0,0,0,231.8,766,0,0.000387612,0.000225677,-1.78147e-05,0.0162429,-0.00397221,0.000715408,-0.000499802,-0.000726662,-0.0748193,0.00102219,-0.000485535,0.0163501,-0.0202826,0.00178341,0.000810661,-0.00768188
34,0,0,0,0,0,0,0,231.8,254,0,0,0,0,0,0,0,231.8,766,0,0.000807228,0.00095047,0.000974007,0.0164718,-0.00160709,0.00132576,0.00098793,0.000951805,0.0763572,0.000869598,0.000925903,0.0179522,-0.0195959,0.00166897,0.00245098,-0.00806335
34,1,0,0,0,0,0,0,231.8,254,0,0,0,0,0,0,0,231.8,766,0,-0.000260887,0.0012175,0.000592537,0.0168151,0.000834313,0.00109688,0.000873489,0.000684776,0.0435508,0.000907745,-0.000256653,0.019707,-0.0205115,0.000524559,-0.000143013,-0.00829224
34,2,0,0,0,0,0,0,231.8,254,0,0,0,0,0,0,0,231.8,766,0,0.000273171,-0.000232087,0.000287361,0.0157089,0.00197872,0.000181351,-0.000347214,0.000188866,-0.0719201,0.000106659,-0.00105774,0.0226443,-0.0209311,0.0012112,0.00142101,-0.00802521
34,3,0,0,0,0,0,0,231.8,254,0,0,0,0,0,0,0,231.8,766,0,-0.000451622,-3.20468e-06,-5.59617e-05,0.0155944,0.00102505,-0.000505295,-0.000919418,0.000227013,0.0845206,0.000106659,-0.000599976,0.0183337,-0.0217703,-0.00134464,0.00058178,-0.0093222
34,4,0,0,0,0,0,0,231.8,254,0,0,0,0,0,0,0,231.8,766,0,0.00015873,-4.13517e-05,0.000401802,0.0160522,-0.000882301,0.00166908,0.00114052,-0.000612221,0.0556052,0.000755157,4.85228e-05,0.0234454,-0.0205496,0.00170712,-0.000791511,-0.00848297
34,5,0,0,0,0,0,0,231.8,254,0,0,0,0,0,0,0,231.8,766,0,0.00145573,0.000569,0.000668831,0.0160522,0.00243649,6.69097e-05,0.00117867,0.00106625,-0.0743615,-0.000198517,-0.000256653,0.0200885,-0.0202063,0.00140194,0.00153545,-0.00882629
34,6,0,0,0,0,0,0,231.8,254,0,0,0,0,0,0,0,231.8,766,0,-0.000260887,-0.000155793,-5.59617e-05,0.0158233,0.00117764,0.000257645,0.000148697,-0.000154457,0.0852454,0.00136551,-0.000371094,0.010895,-0.0210837,0.000524559,0.00069622,-0.00958923
34,7,0,0,0,0,0,0,231.8,254,0,0,0,0,0,0,0,231.8,766,0,0.000387612,0.000683441,0.000897713,0.0167389,0.00331387,0.00124947,0.000568314,0.000532188,0.0646079,0.00155624,-0.000142212,0.0151294,-0.0198248,0.00155453,0.0022221,-0.0081778
34,8,0,0,0,0,0,0,231.8,254,0,0,0,0,0,0,0,231.8,766,0,0.00103611,0.00095047,0.000592537,0.0175018,0.000376549,0.00102058,3.42559e-05,0.000303307,-0.0937402,-7.78213e-06,0.000162964,0.0149768,-0.0200156,0.00174526,0.00176434,-0.00806335
34,9,0,0,0,0,0,0,231.8,254,0,0,0,0,0,0,0,231.8,766,0,-0.00022274,0.000607147,0.000859566,0.01651,-0.00168339,0.000333939,0.000415726,-1.86916e-06,-0.0253045,0.00182327,-0.000180359,0.0152819,-0.019863,0.00117306,0.000276604,-0.00813965
35,0,0,0,0,0,0,0,231.8,254,0,0,0,0,0,0,0,231.8,766,0,-0.000833091,0.000683441,0.00116474,0.017044,0.00133022,0.00132576,7.24029e-05,0.000837364,0.00410683,0.000793304,0.000925903,0.015816,-0.0205878,0.00105862,0.00145916,-0.00756744
35,1,0,0,0,0,0,0,231.8,254,0,0,0,0,0,0,0,231.8,766,0,-0.000947532,0.000149383,5.84793e-05,0.0158615,-0.000119362,0.00094429,-0.000118332,-0.000421486,0.0980247,0.000564422,-0.000828858,0.0116198,-0.0207404,0.000600853,0.00134472,-0.00714783
35,2,0,0,0,0,0,0,231.8,254,0,0,0,0,0,0,0,231.8,766,0,0.000235024,0.000416412,0.00166065,0.0163574,0.00010952,0.00121132,0.000911636,0.00152401,-0.0472771,0.00113663,0.00046814,0.0114672,-0.0196722,0.00155453,0.00164989,-0.00875
35,3,0,0,0,0,0,0,231.8,254,0,0,0,0,0,0,0,231.8,766,0,0.000769082,0.0011412,0.000478096,0.0172729,0.00106319,0.000906143,0.00106422,0.000570335,-0.00619286,0.00125107,0.00130737,0.00902584,-0.0202444,0.00136379,0.00145916,-0.00905518
35,4,0,0,0,0,0,0,231.8,254,0,0,0,0,0,0,0,231.8,766,0,0.000692788,-4.13517e-05,0.000287361,0.0176544,0.00110134,0.00094429,0.000720901,-4.00161e-05,0.10306,-0.000236664,0.000353699,0.0163501,-0.0202444,0.00105862,0.00058178,-0.00787262
35,5,0,0,0,0,0,0,231.8,254,0,0,0,0,0,0,0,231.8,766,0,0.000502053,0.000416412,2.03323e-05,0.0155182,0.00117764,0.000257645,-0.000118332,0.000570335,-0.0465142,-0.000503693,0.000429993,0.0184481,-0.0216559,-0.000543556,0.000543633,-0.0081778
35,6,0,0,0,0,0,0,231.8,254,0,0,0,0,0,0,0,231.8,766,0,-0.00022274,-0.00030838,-0.000170403,0.0159759,0.00258907,0.000410232,0.000873489,-0.000612221,-0.00768059,0.000144806,-0.000485535,0.0142901,-0.0212363,0.000333824,-0.000944099,-0.00878815
35,7,0,0,0,0,0,0,231.8,254,0,0,0,0,0,0,0,231.8,766,0,0.00015873,0.000607147,0.000859566,0.0167007,0.00266537,0.000372085,0.000377579,0.000341454,0.118929,0.00155624,0.000697021,0.0151675,-0.0204733,0.00136379,0.00195507,-0.00722412
35,8,0,0,0,0,0,0,231.8,254,0,0,0,0,0,0,0,231.8,766,0,0.000463906,0.000874176,-0.000361137,0.0162429,-0.00183598,0.000410232,-4.2038e-05,3.62778e-05,-0.0452172,6.85118e-05,0.00046814,0.0145572,-0.0210074,0.000791588,0.000429192,-0.00985626
35,9,0,0,0,0,0,0,231.8,254,0,0,0,0,0,0,0,231.8,766,0,0.000311318,0.000607147,0.000821419,0.0160141,-0.00172153,0.000906143,0.00011055,-0.000345192,-0.00836723,0.000106659,-0.000218506,0.0150912,-0.0199011,0.000524559,0.000619926,-0.00813965
36,0,0,0,0,0,0,0,231.8,254,0,0,0,0,0,0,0,231.8,766,0,-3.20049e-05,-3.20468e-06,0.00101215,0.0162429,-0.000424538,-0.000123825,0.000415726,-1.86916e-06,0.123431,6.85118e-05,-0.000409241,0.0129931,-0.0211218,-9.49856e-06,0.00115398,-0.00871185
36,1,0,0,0,0,0,0,231.8,254,0,0,0,0,0,0,0,231.8,766,0,-3.20049e-05,-0.00019394,-5.59617e-05,0.0151748,0.00503048,-0.000429001,-0.000461655,-0.000268898,-0.0428902,0.00109848,0.00058258,0.0161975,-0.0216559,0.00105862,0.000429192,-0.00833038
36,2,0,0,0,0,0,0,231.8,254,0,0,0,0,0,0,0,231.8,766,0,0.000387612,0.000225677,0.000516243,0.01651,0.0053738,0.00140205,0.00011055,0.000570335,-0.0655114,0.00071701,-0.000104065,0.0191729,-0.0205878,0.000562706,0.00164989,-0.00886444
36,3,0,0,0,0,0,0,231.8,254,0,0,0,0,0,0,0,231.8,766,0,-3.20049e-05,0.000416412,0.000363655,0.0160522,0.00457272,0.00109688,0.000720901,0.000646629,-0.0135171,-0.000427399,0.000201111,0.00925472,-0.0197104,0.00151638,0.000619926,-0.00833038
36,4,0,0,0,0,0,0,231.8,254,0,0,0,0,0,0,0,231.8,766,0,-0.000260887,-0.000651703,0.000668831,0.0157852,0.00392422,0.000181351,-0.000423508,-7.81631e-05,0.0596488,0.000526275,-0.0002948,0.0045245,-0.0202063,-4.76455e-05,0.000391045,-0.00836853
36,5,0,0,0,0,0,0,231.8,254,0,0,0,0,0,0,0,231.8,766,0,0.000196877,3.49423e-05,-9.41086e-05,0.0154419,0.000567284,0.000753555,-3.89107e-06,7.44248e-05,0.0470222,0.000755157,0.000544433,0.0156253,-0.0210074,0.000219383,0.00115398,-0.00772003
36,6,0,0,0,0,0,0,231.8,254,0,0,0,0,0,0,0,231.8,766,0,0.000463906,0.00171341,0.000706978,0.0163574,0.00190243,0.000867996,0.00178902,0.000913658,-0.0732552,0.00159439,0.00058258,0.0163119,-0.0193289,0.00182156,0.00115398,-0.00897888
36,7,0,0,0,0,0,0,231.8,254,0,0,0,0,0,0,0,231.8,766,0,0.000349465,0.00133194,0.000592537,0.0161666,0.00525936,0.00117317,-3.89107e-06,0.000837364,0.0784934,0.000182953,-0.000638123,0.0136035,-0.0210455,6.67954e-05,0.00058178,-0.00768188
36,8,0,0,0,0,0,0,231.8,254,0,0,0,0,0,0,0,231.8,766,0,0.000311318,-0.000270233,0.000363655,0.0164337,0.00373348,-0.000467148,0.00133125,-0.00011631,0.0429786,0.0020903,0.000773315,0.0159686,-0.0205878,0.00174526,-6.6719e-05,-0.00871185
36,9,0,0,0,0,0,0,231.8,254,0,0,0,0,0,0,0,231.8,766,0,0.000845375,3.49423e-05,-5.59617e-05,0.0160141,0.00213131,0.000295792,0.00049202,-0.000917397,-0.0710046,-0.000198517,8.66698e-05,0.0177233,-0.0215414,-9.49856e-06,8.58689e-05,-0.00920776
37,0,0,0,0,0,0,0,231.8,254,0,0,0,0,0,0,0,231.8,766,0,0.000235024,0.000492706,-0.00032299,0.0158996,0.00640377,2.87627e-05,0.00114052,0.000913658,0.0839103,0.0002211,-0.000599976,0.0210803,-0.0202444,0.00102047,0.000543633,-0.00798706
37,1,0,0,0,0,0,0,231.8,254,0,0,0,0,0,0,0,231.8,766,0,0.000273171,0.000454559,0.000287361,0.0158615,0.00907406,0.000219498,-0.000156479,0.000494041,0.0549949,0.00140366,-0.000256653,0.0171511,-0.0202826,0.00105862,-0.000143013,-0.00756744
37,2,0,0,0,0,0,0,231.8,254,0,0,0,0,0,0,0,231.8,766,0,0.000769082,0.000683441,0.000134773,0.0163192,0.00945553,0.00140205,0.000873489,3.62778e-05,-0.0728738,0.00117477,-0.00162994,0.0103228,-0.0202826,0.000639,0.000963249,-0.00676636
37,3,0,0,0,0,0,0,231.8,254,0,0,0,0,0,0,0,231.8,766,0,0.0005402,0.000149383,0.000821419,0.0167389,0.0126217,0.000219498,0.000949783,0.000837364,0.0851691,0.000984039,0.000239258,0.0103991,-0.0211218,0.00166897,0.00149731,-0.00806335
37,4,0,0,0,0,0,0,231.8,254,0,0,0,0,0,0,0,231.8,766,0,0.000883522,0.000454559,0.000325508,0.0154037,0.00998959,0.000524673,-8.0185e-05,-0.00049778,0.0640739,0.00125107,-0.000142212,0.0111239,-0.0202444,-4.76455e-05,-0.00018116,-0.00886444
37,5,0,0,0,0,0,0,231.8,254,0,0,0,0,0,0,0,231.8,766,0,0.000502053,0.000378265,0.000821419,0.016777,0.0115155,0.00128761,0.000759048,0.000494041,-0.0925576,6.85118e-05,0.000773315,0.0149768,-0.0203589,0.00174526,0.00176434,-0.00897888
37,6,0,0,0,0,0,0,231.8,254,0,0,0,0,0,0,0,231.8,766,0,0.00015873,7.30893e-05,0.000325508,0.0170822,0.00998959,0.00121132,0.000911636,-7.81631e-05,-0.0256097,0.0014418,0.000849609,0.0159686,-0.0202826,0.000715294,0.00134472,-0.00825409
37,7,0,0,0,0,0,0,231.8,254,0,0,0,0,0,0,0,231.8,766,0,-3.20049e-05,0.00125565,0.000478096,0.0155944,0.0106381,0.00094429,0.000377579,0.000188866,0.00494606,0.0002211,0.00134552,0.0178759,-0.0202826,0.000448265,0.00164989,-0.0101233
37,8,0,0,0,0,0,0,231.8,254,0,0,0,0,0,0,0,231.8,766,0,0.000463906,0.000454559,9.66262e-05,0.0163192,0.0105236,0.00109688,0.000911636,0.00076107,0.0982154,0.000259247,-0.000218506,0.0197451,-0.0204352,0.00113491,0.00115398,-0.00852112
37,9,0,0,0,0,0,0,231.8,254,0,0,0,0,0,0,0,231.8,766,0,0.000425759,3.49423e-05,0.00055439,0.0155944,0.00751003,0.000486526,0.00011055,-1.86916e-06,-0.0477731,0.000793304,0.000162964,0.0152438,-0.0212363,0.000639,0.000543633,-0.00825409
38,0,0,0,0,0,0,0,231.8,254,0,0,0,0,0,0,0,231.8,766,0,0.000463906,0.000874176,0.00055439,0.0152893,0.00625118,-0.000161972,-3.89107e-06,0.000379601,-0.00707024,0.000144806,0.000620727,0.0142901,-0.0227621,-0.00023838,-0.000143013,-0.00924591
38,1,0,0,0,0,0,0,231.8,254,0,0,0,0,0,0,0,231.8,766,0,0.000807228,0.00117935,-0.000284843,0.0164337,0.00419125,0.000982437,0.000835342,-0.000154457,0.102373,-0.000389252,-0.000142212,0.0148242,-0.0206641,0.000410118,0.000124016,-0.00825409
38,2,0,0,0,0,0,0,231.8,254,0,0,0,0,0,0,0,231.8,766,0,0.000311318,0.00106491,0.000592537,0.0162048,0.00262722,0.00155464,0.000911636,0.000646629,-0.0448357,0.000907745,-2.77711e-05,0.0202411,-0.0196341,0.00189785,0.00187878,-0.00760559
38,3,0,0,0,0,0,0,231.8,254,0,0,0,0,0,0,0,231.8,766,0,0.00126499,0.00018753,0.00112659,0.0164337,0.00331387,0.00109688,0.00220863,-0.00011631,-0.00794762,0.000449982,0.00126923,0.0221865,-0.0211218,0.000791588,0.000963249,-0.00878815
38,4,0,0,0,0,0,0,231.8,254,0,0,0,0,0,0,0,231.8,766,0,0.00103611,0.000263824,0.00055439,0.0174636,0.00403866,0.00105873,0.0013694,0.000989952,0.118357,0.00121292,0.00168884,0.0205081,-0.0200156,0.00109676,0.000925102,-0.00718597
38,5,0,0,0,0,0,0,231.8,254,0,0,0,0,0,0,0,231.8,766,0,-0.000108299,0.0017897,0.00143177,0.0158996,0.00487789,0.000639114,-4.2038e-05,0.000150719,-0.0446069,0.00125107,0.00115479,0.0103991,-0.0208929,0.00166897,0.00176434,-0.0081778
38,6,0,0,0,0,0,0,231.8,254,0,0,0,0,0,0,0,231.8,766,0,-3.20049e-05,-0.000537262,0.000134773,0.0160522,0.00464901,0.00056282,0.000911636,0.000455895,-0.00741356,0.000907745,-0.000409241,0.00727108,-0.0196722,-4.76455e-05,0.0010014,-0.00871185
38,7,0,0,0,0,0,0,231.8,254,0,0,0,0,0,0,0,231.8,766,0,0.000463906,-3.20468e-06,0.00055439,0.015747,0.00266537,0.000715408,-0.000385361,-0.000192604,0.123278,0.000488129,-0.000371094,0.00883511,-0.0216559,0.000181236,0.000391045,-0.00916962
38,8,0,0,0,0,0,0,231.8,254,0,0,0,0,0,0,0,231.8,766,0,0.000235024,0.000530853,0.000706978,0.0161666,0.00495419,0.000524673,0.000873489,-0.000383339,-0.0421655,0.000411835,-2.77711e-05,0.0109332,-0.0212363,0.00132565,0.000238457,-0.0106955
38,9,0,0,0,0,0,0,231.8,254,0,0,0,0,0,0,0,231.8,766,0,4.4289e-05,0.0011412,0.00116474,0.0164337,0.00583157,0.00132576,0.00125496,0.000799217,-0.0650155,0.00163254,0.000391846,0.0153582,-0.0199011,0.0012875,0.00126843,-0.00802521
39,0,0,0,0,0,0,0,231.8,254,0,0,0,0,0,0,0,231.8,766,0,0.000692788,-3.20468e-06,0.000249214,0.0151748,0.00934109,0.00109688,0.00049202,0.000684776,-0.0128686,0.000411835,-0.00105774,0.0206607,-0.0203589,0.00117306,0.00123028,-0.00878815
39,1,0,0,0,0,0,0,231.8,254,0,0,0,0,0,0,0,231.8,766,0,0.00134129,0.000530853,0.000592537,0.0159378,0.012965,0.00109688,0.000682754,0.000417748,0.0601829,0.000831451,0.000658874,0.0238269,-0.0212744,0.000333824,0.00164989,-0.00951294
39,2,0,0,0,0,0,0,231.8,254,0,0,0,0,0,0,0,231.8,766,0,-0.000451622,0.000530853,0.000745125,0.0162811,0.08018,2.87627e-05,0.00049202,-0.000802956,0.0462974,0.000564422,1.03759e-05,0.0225299,-0.0207785,0.00113491,0.00020031,-0.00890259
39,3,0,0,0,0,0,0,231.8,254,0,0,0,0,0,0,0,231.8,766,0,0.000502053,-0.000117646,0.000211067,0.0154419,0.699763,0.000219498,-0.000309067,7.44248e-05,-0.0720727,-0.000427399,1.03759e-05,0.021004,-0.0213507,0.000295677,0.00111584,-0.00882629
39,4,0,0,0,0,0,0,231.8,254,0,0,0,0,0,0,0,231.8,766,0,-7.01519e-05,0.000530853,0.000783272,0.0159759,0.863223,0.00140205,-3.89107e-06,0.000494041,0.0782264,0.000869598,0.000162964,0.0194018,-0.0213507,0.00178341,0.00130657,-0.00710968
39,5,0,0,0,0,0,0,231.8,254,0,0,0,0,0,0,0,231.8,766,0,0.00145573,0.000759735,0.000516243,0.0158233,0.299678,0.000982437,0.00060646,0.00125698,0.0394691,0.000106659,-0.00105774,0.0193637,-0.0202826,0.00102047,0.00134472,-0.00783447
39,6,0,0,0,0,0,0,231.8,254,0,0,0,0,0,0,0,231.8,766,0,0.000502053,0.000378265,0.00146992,0.01651,0.227237,0.00159279,0.00156013,0.00144772,-0.0692879,0.000945892,0.00138367,0.012192,-0.0200156,0.00159267,0.00153545,-0.00844482
39,7,0,0,0,0,0,0,231.8,254,0,0,0,0,0,0,0,231.8,766,0,0.000425759,-7.94986e-05,0.00108845,0.0157089,0.0707577,0.000600967,0.000415726,-4.00161e-05,0.0842918,0.00128921,0.000620727,0.0103991,-0.0218466,0.00113491,0.000848808,-0.00764374
39,8,0,0,0,0,0,0,231.8,254,0,0,0,0,0,0,0,231.8,766,0,0.0011887,0.000149383,0.000592537,0.0151367,-0.000729713,0.000982437,3.42559e-05,0.000379601,0.0540412,-8.40761e-05,0.00107849,0.0135272,-0.0215033,0.000219383,0.000543633,-0.00791077
39,9,0,0,0,0,0,0,231.8,254,0,0,0,0,0,0,0,231.8,766,0,0.0011124,0.000416412,0.000897713,0.0159378,-0.0674106,0.00105873,0.00156013,-0.000268898,-0.0720727,0.000449982,0.000620727,0.0153964,-0.0205878,0.00140194,-0.00018116,-0.00798706
40,0,0,0,0,0,0,0,231.8,254,0,0,0,0,0,0,0,231.8,766,0,6.14207e-06,-0.000117646,0.000287361,0.0155944,-0.108838,0.000295792,0.000415726,0.000303307,0.0850166,0.000106659,-0.0002948,0.013222,-0.0216559,0.000295677,0.0010014,-0.0075293
40,1,0,0,0,0,0,0,231.8,254,0,0,0,0,0,0,0,231.8,766,0,-7.01519e-05,-0.000460968,-0.000361137,0.0158615,-0.145154,0.000181351,0.000377579,-0.000383339,0.0627769,0.000526275,0.000315552,0.0104754,-0.0218848,0.000715294,0.00164989,-0.00977997
40,2,0,0,0,0,0,0,231.8,254,0,0,0,0,0,0,0,231.8,766,0,0.000997963,0.000645294,0.000706978,0.0160522,-0.165868,0.000715408,0.000873489,0.000150719,-0.0918328,0.000602569,-0.0002948,0.014786,-0.0211218,0.000944176,0.000543633,-0.00783447
40,3,0,0,0,0,0,0,231.8,254,0,0,0,0,0,0,0,231.8,766,0,-0.000489769,0.000454559,0.000516243,0.0160522,-0.180402,0.000639114,0.00060646,0.000455895,-0.0253808,0.000793304,0.00104034,0.0127261,-0.0214651,0.000639,0.00149731,-0.00985626
40,4,0,0,0,0,0,0,231.8,254,0,0,0,0,0,0,0,231.8,766,0,0.00115055,0.000759735,0.000592537,0.0171203,-0.186086,0.000410232,0.00060646,0.000532188,0.00544197,0.000373688,0.00119293,0.0118487,-0.0209311,0.00151638,0.000772514,-0.007453
40,5,0,0,0,0,0,0,231.8,254,0,0,0,0,0,0,0,231.8,766,0,0.000654641,-0.000232087,-0.000246697,0.0160904,-0.191388,0.00102058,0.000720901,0.000303307,0.0974525,0.000488129,-0.000752564,0.0113528,-0.0216177,-4.76455e-05,0.0010014,-0.00726227
40,6,0,0,0,0,0,0,231.8,254,0,0,0,0,0,0,0,231.8,766,0,0.00130314,0.00095047,0.00150806,0.0159378,-0.191274,0.00117317,0.0013694,0.000684776,-0.0462472,0.00163254,0.00226105,0.011925,-0.0201682,0.00166897,0.000467339,-0.00695709
40,7,0,0,0,0,0,0,231.8,254,0,0,0,0,0,0,0,231.8,766,0,0.000692788,0.000683441,0.00177509,0.0175399,-0.186353,0.00094429,0.00148384,0.000684776,-0.00684135,0.00106033,0.000277405,0.0124972,-0.0206259,0.00147823,0.000543633,-0.00829224
40,8,0,0,0,0,0,0,231.8,254,0,0,0,0,0,0,0,231.8,766,0,0.000196877,-7.94986e-05,0.00093586,0.0157089,-0.178418,0.000982437,0.000186844,0.000494041,0.102183,0.000526275,-0.000447388,0.014519,-0.0204352,0.00105862,0.00119213,-0.0081015
40,9,0,0,0,0,0,0,231.8,254,0,0,0,0,0,0,0,231.8,766,0,0.000578347,-0.000117646,-0.000361137,0.0156326,-0.169225,-0.000238266,0.000263138,0.000227013,-0.0452554,0.000182953,-0.000828858,0.0129931,-0.0223044,0.000867882,8.58689e-05,-0.00798706
41,0,0,0,0,0,0,0,231.8,254,0,0,0,0,0,0,0,231.8,766,0,-0.000299034,0.00201858,0.000439949,0.0151367,-0.15862,0.000715408,0.000415726,0.000951805,-0.00672691,0.00132736,-0.000485535,0.00975063,-0.0213889,0.000486412,0.000619926,-0.00699524
41,1,0,0,0,0,0,0,231.8,254,0,0,0,0,0,0,0,231.8,766,0,0.00164646,0.000492706,0.000897713,0.0171966,-0.143972,0.00094429,0.0013694,0.00125698,0.11851,0.00117477,0.00142181,0.00585964,-0.0201682,0.00205044,0.00138287,-0.00813965
41,2,0,0,0,0,0,0,231.8,254,0,0,0,0,0,0,0,231.8,766,0,-7.01519e-05,-0.000575409,0.000401802,0.0157089,-0.131154,0.00117317,7.24029e-05,0.000303307,-0.0445306,-7.78213e-06,0.00126923,0.00280788,-0.0221518,0.000524559,0.000314751,-0.00775818
41,3,0,0,0,0,0,0,231.8,254,0,0,0,0,0,0,0,231.8,766,0,0.000921669,0.000492706,0.00017292,0.0154037,-0.119329,0.000486526,0.00098793,0.000608482,-0.00722282,-0.000351105,0.000391846,0.00715664,-0.0207785,0.000371971,0.00115398,-0.00859741
41,4,0,0,0,0,0,0,231.8,254,0,0,0,0,0,0,0,231.8,766,0,0.000425759,-0.000460968,-9.41086e-05,0.0158996,-0.112691,0.000143204,-0.000766831,0.000913658,0.122706,-0.000694428,0.000620727,0.011658,-0.021694,0.000524559,0.000391045,-0.00943665
41,5,0,0,0,0,0,0,231.8,254,0,0,0,0,0,0,0,231.8,766,0,-0.000871238,0.000530853,0.000783272,0.0168533,-0.0997593,0.00094429,-0.000309067,0.00110439,-0.0402581,0.000488129,0.000391846,0.0177233,-0.021694,0.0012112,0.00119213,-0.00791077
41,6,0,0,0,0,0,0,231.8,254,0,0,0,0,0,0,0,231.8,766,0,0.00172276,0.000301971,0.000478096,0.0158233,-0.0904514,0.000791702,0.00060646,0.00106625,-0.0645959,0.000411835,-0.000447388,0.0144046,-0.0219992,0.000944176,0.00161175,-0.00787262
41,7,0,0,0,0,0,0,231.8,254,0,0,0,0,0,0,0,231.8,766,0,0.00153202,0.000416412,-0.000551872,0.0167389,-0.0819828,-0.000390854,0.000873489,0.00118069,-0.0134026,-0.000236664,0.000773315,0.0122302,-0.0208929,0.000600853,0.0010014,-0.00848297
41,8,0,0,0,0,0,0,231.8,254,0,0,0,0,0,0,0,231.8,766,0,0.000769082,0.000645294,0.000897713,0.0156707,-0.0708057,0.00102058,0.000301285,0.000722923,0.0606025,0.000106659,-0.000790711,0.0161975,-0.0218085,0.000715294,0.00180248,-0.00890259
41,9,0,0,0,0,0,0,231.8,254,0,0,0,0,0,0,0,231.8,766,0,0.00157017,-0.00030838,0.000287361,0.0165481,-0.0591327,0.000486526,0.000720901,0.000227013,0.0463737,0.000182953,0.000773315,0.0183337,-0.0204352,0.000829735,0.00058178,-0.0081015
42,0,0,0,0,0,0,0,231.8,254,0,0,0,0,0,0,0,231.8,766,0,0.000387612,0.00144638,0.00154621,0.0161285,-0.0507785,0.00128761,0.00114052,0.000494041,-0.0713479,0.00167068,0.00134552,0.0195163,-0.0202444,0.00151638,0.00168804,-0.00798706
42,1,0,0,0,0,0,0,231.8,254,0,0,0,0,0,0,0,231.8,766,0,0.00130314,0.000836029,0.000897713,0.0166244,-0.0431491,0.00109688,-0.000194626,0.00152401,0.0767387,-4.59291e-05,0.000162964,0.0167315,-0.0208548,0.0012112,0.000734367,-0.00882629
42,2,0,0,0,0,0,0,231.8,254,0,0,0,0,0,0,0,231.8,766,0,0.000273171,-0.00068985,0.000783272,0.0164337,-0.0319721,0.000867996,0.000415726,-0.000383339,0.0421775,0.000106659,0.000239258,0.0175326,-0.0208929,0.00113491,0.000276604,-0.00833038
42,3,0,0,0,0,0,0,231.8,254,0,0,0,0,0,0,0,231.8,766,0,4.4289e-05,-4.13517e-05,-0.000246697,0.0149078,-0.025449,0.000143204,-0.000194626,-0.000345192,-0.0696694,-0.000351105,0.000162964,0.0117343,-0.0217703,0.000677147,0.000314751,-0.00890259
42,4,0,0,0,0,0,0,231.8,254,0,0,0,0,0,0,0,231.8,766,0,0.000769082,0.000645294,0.000592537,0.0173492,-0.0159122,0.00121132,0.00060646,0.000989952,0.0832999,0.000869598,0.000429993,0.0135653,-0.0208929,0.0012875,-0.000143013,-0.00791077
42,5,0,0,0,0,0,0,231.8,254,0,0,0,0,0,0,0,231.8,766,0,0.000120583,0.000683441,0.000287361,0.0166244,-0.00732914,0.00117317,0.00117867,0.000799217,0.0553382,0.00109848,0.000735168,0.0118487,-0.0216559,0.00147823,0.00130657,-0.007453
42,6,0,0,0,0,0,0,231.8,254,0,0,0,0,0,0,0,231.8,766,0,0.00115055,0.000569,-0.000513725,0.0167007,-0.00122562,0.00094429,-0.000576096,0.000646629,-0.0707757,0.000793304,4.85228e-05,0.00837734,-0.0221136,0.000524559,-0.000143013,-0.00867371
42,7,0,0,0,0,0,0,231.8,254,0,0,0,0,0,0,0,231.8,766,0,-0.000108299,0.000759735,0.000668831,0.0170059,0.00339016,0.000867996,0.000835342,0.000608482,0.0833381,0.00128921,0.000506287,0.0161593,-0.0211218,0.000867882,0.000543633,-0.00844482
42,8,0,0,0,0,0,0,231.8,254,0,0,0,0,0,0,0,231.8,766,0,-0.000146446,7.30893e-05,0.000249214,0.0153656,0.00564083,-0.000276413,-0.000690537,0.000379601,0.0638068,-0.000579987,-0.000905151,0.0176852,-0.0209692,-0.000162086,0.000734367,-0.00871185
42,9,0,0,0,0,0,0,231.8,254,0,0,0,0,0,0,0,231.8,766,0,0.0005402,0.000454559,5.84793e-05,0.0163192,0.0107144,0.000906143,0.000224991,0.000341454,-0.091108,0.000945892,0.000620727,0.0196688,-0.0209311,0.000753441,0.000810661,-0.00756744
43,0,0,0,0,0,0,0,231.8,254,0,0,0,0,0,0,0,231.8,766,0,0.000463906,0.000797882,0.000287361,0.017044,0.0155972,0.000906143,0.00121681,0.00076107,-0.0235879,0.000640716,0.000697021,0.016846,-0.02116,0.000562706,0.00103954,-0.00821594
43,1,0,0,0,0,0,0,231.8,254,0,0,0,0,0,0,0,231.8,766,0,0.000578347,0.000797882,-9.41086e-05,0.0158233,0.0198697,0.000906143,-0.000347214,0.000875511,0.00475533,-0.000465546,0.000620727,0.0161975,-0.0206259,0.000677147,-0.000219307,-0.00760559
43,2,0,0,0,0,0,0,231.8,254,0,0,0,0,0,0,0,231.8,766,0,0.00015873,-0.000270233,0.00135548,0.0171966,0.0248288,0.00132576,0.000835342,0.000570335,0.0956214,0.00140366,0.00119293,0.0177996,-0.0195959,0.00182156,0.00115398,-0.00703339
43,3,0,0,0,0,0,0,231.8,254,0,0,0,0,0,0,0,231.8,766,0,-0.000108299,0.000340118,-0.000933342,0.0143737,0.0258969,0.000715408,3.42559e-05,-1.86916e-06,-0.0465905,0.000182953,-2.77711e-05,0.0154727,-0.02116,2.86484e-05,0.000314751,-0.00825409
43,4,0,0,0,0,0,0,231.8,254,0,0,0,0,0,0,0,231.8,766,0,0.00160831,0.00102676,0.000211067,0.0158233,0.0283764,-0.000429001,0.00110237,0.000532188,-0.00691765,-7.78213e-06,-6.59181e-05,0.0120013,-0.0211218,-8.57925e-05,0.000925102,-0.00878815
43,5,0,0,0,0,0,0,231.8,254,0,0,0,0,0,0,0,231.8,766,0,0.00015873,0.000836029,0.00055439,0.0162811,0.0307034,0.000410232,-0.000232773,0.000989952,0.101267,-0.000503693,-2.77711e-05,0.0138324,-0.0207785,0.000715294,0.000314751,-0.00863556
43,6,0,0,0,0,0,0,231.8,254,0,0,0,0,0,0,0,231.8,766,0,8.2436e-05,0.000797882,9.66262e-05,0.0168533,0.0330304,0.000600967,0.00117867,0.00106625,-0.0429665,0.00109848,0.00046814,0.0190585,-0.02116,0.00105862,0.00126843,-0.00703339
43,7,0,0,0,0,0,0,231.8,254,0,0,0,0,0,0,0,231.8,766,0,0.000883522,0.000797882,0.000363655,0.0167389,0.0356625,0.000410232,0.000530167,0.00076107,-0.00592583,0.00109848,0.000887756,0.0181048,-0.0204733,-0.000467262,0.00069622,-0.00676636
43,8,0,0,0,0,0,0,231.8,254,0,0,0,0,0,0,0,231.8,766,0,0.000311318,0.00106491,0.00112659,0.0168151,0.0328778,0.000829849,0.000186844,0.000379601,0.117518,0.0002211,0.000773315,0.0174563,-0.0206641,0.00178341,0.00161175,-0.00859741
43,9,0,0,0,0,0,0,231.8,254,0,0,0,0,0,0,0,231.8,766,0,0.00145573,0.000988617,0.00112659,0.0166244,0.0337551,0.00117317,0.000263138,0.000112572,-0.043081,0.00136551,0.000773315,0.0153964,-0.0211218,0.00166897,0.000467339,-0.00844482
44,0,0,0,0,0,0,0,231.8,254,0,0,0,0,0,0,0,231.8,766,0,-3.20049e-05,7.30893e-05,0.000668831,0.0158233,0.0335263,0.000257645,-3.89107e-06,-0.000268898,-0.00798576,3.03648e-05,-0.000180359,0.0134509,-0.0213126,0.000181236,0.000429192,-0.00794891
44,1,0,0,0,0,0,0,231.8,254,0,0,0,0,0,0,0,231.8,766,0,0.000883522,0.00095047,0.000592537,0.0160522,0.0343655,0.000486526,0.000453873,0.000799217,0.1216,0.000488129,-0.00105774,0.0173037,-0.02116,0.000677147,0.000772514,-0.00836853
44,2,0,0,0,0,0,0,231.8,254,0,0,0,0,0,0,0,231.8,766,0,0.000807228,0.000607147,0.00112659,0.0167007,0.0342129,0.00094429,0.000224991,0.000799217,-0.0397622,0.00128921,0.000849609,0.015816,-0.0203589,0.000982323,0.00119213,-0.00875
44,3,0,0,0,0,0,0,231.8,254,0,0,0,0,0,0,0,231.8,766,0,0.000921669,0.000683441,0.000974007,0.0165863,0.0311993,0.000257645,-0.000194626,-1.86916e-06,-0.0624215,0.000259247,0.000544433,0.0137561,-0.0216177,0.000715294,0.000276604,-0.00806335
44,4,0,0,0,0,0,0,231.8,254,0,0,0,0,0,0,0,231.8,766,0,0.000502053,0.000836029,0.00055439,0.0160904,0.0294064,0.000867996,0.000530167,-0.000688515,-0.0123345,0.00121292,0.000544433,0.0165026,-0.0208929,-0.000200233,0.000467339,-0.00859741
44,5,0,0,0,0,0,0,231.8,254,0,0,0,0,0,0,0,231.8,766,0,-3.20049e-05,0.000874176,0.00139362,0.0162429,0.0282238,0.00102058,0.000720901,7.44248e-05,0.0597633,0.00113663,0.000239258,0.0167315,-0.0198248,0.0018597,0.000391045,-0.00806335
44,6,0,0,0,0,0,0,231.8,254,0,0,0,0,0,0,0,231.8,766,0,0.000616494,0.000645294,0.00055439,0.0158996,0.0282238,0.000867996,0.000415726,0.000989952,0.0463355,0.00071701,0.000315552,0.0155871,-0.0212744,0.00151638,0.000925102,-0.00833038
44,7,0,0,0,0,0,0,231.8,254,0,0,0,0,0,0,0,231.8,766,0,-0.000260887,-0.000613556,-0.00020855,0.0159378,0.0267361,0.000448379,-0.000614243,0.000379601,-0.0714623,-0.00202957,0.000162964,0.0142138,-0.0205496,0.000333824,-0.000219307,-0.00897888
44,8,0,0,0,0,0,0,231.8,254,0,0,0,0,0,0,0,231.8,766,0,0.000425759,0.000759735,0.000516243,0.0150985,0.0286053,0.000639114,0.000148697,0.000150719,0.0752891,-0.000618134,-0.0002948,0.015549,-0.0208167,0.000639,4.77219e-05,-0.00875
44,9,0,0,0,0,0,0,231.8,254,0,0,0,0,0,0,0,231.8,766,0,0.000692788,-0.000155793,-0.000437431,0.0155563,0.026698,2.87627e-05,-0.00027092,0.000227013,0.0430549,-0.000198517,-0.000905151,0.0154345,-0.0217322,-0.000505409,-0.000638924,-0.00913147
45,0,0,0,0,0,0,0,231.8,254,0,0,0,0,0,0,0,231.8,766,0,-3.20049e-05,0.000645294,0.00093586,0.0160522,0.0254773,0.00102058,0.00011055,0.000227013,-0.0684487,0.000755157,0.000429993,0.0177233,-0.02013,0.000371971,0.00145916,-0.00813965
45,1,0,0,0,0,0,0,231.8,254,0,0,0,0,0,0,0,231.8,766,0,0.000883522,0.00110306,-9.41086e-05,0.0158996,0.0223111,0.000753555,-0.000309067,0.000150719,0.0836814,0.000449982,0.00142181,0.0152438,-0.0217703,0.000143089,0.000467339,-0.00951294
45,2,0,0,0,0,0,0,231.8,254,0,0,0,0,0,0,0,231.8,766,0,0.000502053,0.000912323,0.000592537,0.0167389,0.0224255,0.000486526,0.000568314,0.000455895,0.0549949,6.85118e-05,-6.59181e-05,0.0100177,-0.02013,0.000944176,-0.000677071,-0.00825409
45,3,0,0,0,0,0,0,231.8,254,0,0,0,0,0,0,0,231.8,766,0,0.000883522,0.00140823,0.00112659,0.0164337,0.0220059,0.00109688,0.00049202,0.000837364,-0.0703561,0.000564422,0.000811462,0.00997951,-0.0206641,0.00117306,0.00138287,-0.00699524
45,4,0,0,0,0,0,0,231.8,254,0,0,0,0,0,0,0,231.8,766,0,0.000730935,0.00117935,-5.59617e-05,0.0169296,0.0202511,-8.56782e-05,0.00117867,0.000722923,0.0847114,0.000907745,0.000849609,0.0117343,-0.0207404,-0.000314674,0.00149731,-0.00764374
45,5,0,0,0,0,0,0,231.8,254,0,0,0,0,0,0,0,231.8,766,0,-7.01519e-05,0.0011412,0.000859566,0.0163955,0.0176571,0.00147835,0.0013694,0.000417748,0.0634254,-0.000389252,1.03759e-05,0.0169223,-0.019863,0.000562706,0.00126843,-0.00798706
45,6,0,0,0,0,0,0,231.8,254,0,0,0,0,0,0,0,231.8,766,0,-7.01519e-05,-0.000232087,9.66262e-05,0.0160141,0.0175427,-4.75312e-05,-0.00141533,-0.000230751,-0.0902688,0.00102219,-0.000752564,0.0170367,-0.0205115,0.000791588,-0.000143013,-0.00783447
45,7,0,0,0,0,0,0,231.8,254,0,0,0,0,0,0,0,231.8,766,0,0.00103611,0.000492706,0.000363655,0.0161285,0.0189923,0.00056282,0.000873489,0.000913658,-0.0235116,0.00128921,-0.000638123,0.01738,-0.0202444,0.000371971,0.000238457,-0.00787262
45,8,0,0,0,0,0,0,231.8,254,0,0,0,0,0,0,0,231.8,766,0,-0.000375328,0.000607147,0.000249214,0.0150222,0.0139187,0.000333939,0.000263138,0.000379601,0.00517494,0.000411835,0.000620727,0.015816,-0.0209311,-0.000467262,0.000848808,-0.00882629
45,9,0,0,0,0,0,0,231.8,254,0,0,0,0,0,0,0,231.8,766,0,6.14207e-06,0.0011412,0.00017292,0.0156326,0.0141095,0.000181351,0.000186844,0.000303307,0.0952399,0.000144806,0.000887756,0.0132983,-0.0221899,0.000982323,0.00103954,-0.0105429
46,0,0,0,0,0,0,0,231.8,254,0,0,0,0,0,0,0,231.8,766,0,0.000273171,0.000263824,-0.000666313,0.0165481,0.0147198,-0.000734177,-0.000690537,-0.000230751,-0.0463616,0.000945892,0.000925903,0.0173037,-0.0205878,0.000753441,-0.000333748,-0.00905518
46,1,0,0,0,0,0,0,231.8,254,0,0,0,0,0,0,0,231.8,766,0,-7.01519e-05,-3.20468e-06,-1.78147e-05,0.0150604,0.0130032,0.000791702,0.000453873,-0.000535927,-0.00317924,-0.000618134,-0.000485535,0.0161593,-0.022457,0.000295677,0.00126843,-0.00794891
46,2,0,0,0,0,0,0,231.8,254,0,0,0,0,0,0,0,231.8,766,0,0.00015873,0.000797882,0.000439949,0.0162429,0.0147961,0.000257645,0.00102608,0.000150719,0.0994361,0.000602569,0.000697021,0.0162738,-0.0200156,0.00105862,-0.000486336,-0.00951294
46,3,0,0,0,0,0,0,231.8,254,0,0,0,0,0,0,0,231.8,766,0,0.000387612,0.00125565,9.66262e-05,0.0164337,0.0130413,0.000867996,0.00117867,0.000227013,-0.0470101,6.85118e-05,0.000620727,0.0115435,-0.0191,0.00102047,-0.000295601,-0.00821594
46,4,0,0,0,0,0,0,231.8,254,0,0,0,0,0,0,0,231.8,766,0,0.000845375,0.000988617,0.000783272,0.0166244,0.0136135,0.000753555,0.00133125,0.00106625,-0.00321739,0.00147995,0.00096405,0.0135272,-0.0206641,0.000867882,0.00226025,-0.007453
46,5,0,0,0,0,0,0,231.8,254,0,0,0,0,0,0,0,231.8,766,0,0.000807228,0.00110306,0.0016988,0.0160141,0.0143765,0.00132576,0.000186844,7.44248e-05,0.116373,0.00178513,0.00153625,0.00959804,-0.0189856,0.00132565,-0.000143013,-0.00848297
46,6,0,0,0,0,0,0,231.8,254,0,0,0,0,0,0,0,231.8,766,0,0.000921669,0.000569,0.00055439,0.0166626,0.0132702,0.000143204,0.000911636,0.000227013,-0.0408685,-0.000274811,0.00058258,0.0130313,-0.0208929,-0.000314674,0.000772514,-0.00787262
46,7,0,0,0,0,0,0,231.8,254,0,0,0,0,0,0,0,231.8,766,0,0.000502053,0.000797882,0.000363655,0.0162811,0.0122784,0.000410232,0.000530167,0.000227013,-0.00668877,0.000488129,0.000124817,0.00940731,-0.0212744,-0.000352821,0.00069622,-0.00970367
46,8,0,0,0,0,0,0,231.8,254,0,0,0,0,0,0,0,231.8,766,0,-7.01519e-05,0.000340118,0.000592537,0.0158615,0.0117443,0.000906143,0.000339432,-0.000612221,0.12179,0.000678863,-0.000714417,0.0149005,-0.0209692,0.000448265,0.000658073,-0.00768188
46,9,0,0,0,0,0,0,231.8,254,0,0,0,0,0,0,0,231.8,766,0,0.000997963,0.000797882,0.000745125,0.016777,0.0173901,0.00124947,0.000377579,0.000608482,-0.0401055,0.000984039,0.000811462,0.0200885,-0.0205878,0.00178341,0.0010014,-0.00981812
47,0,0,0,0,0,0,0,231.8,254,0,0,0,0,0,0,0,231.8,766,0,0.000769082,0.000340118,0.00108845,0.0157089,0.0163601,0.000715408,0.000759048,0.000494041,-0.0629556,0.000373688,0.000887756,0.0170367,-0.0205115,0.000486412,8.58689e-05,-0.00848297
47,1,0,0,0,0,0,0,231.8,254,0,0,0,0,0,0,0,231.8,766,0,0.000273171,0.000340118,0.00188953,0.0167007,0.018153,0.000791702,0.000186844,0.000722923,-0.0117623,0.00155624,0.000620727,0.0201266,-0.0210455,0.000677147,0.00168804,-0.00947479
47,2,0,0,0,0,0,0,231.8,254,0,0,0,0,0,0,0,231.8,766,0,0.000387612,0.000721588,0.00017292,0.0167389,0.0184582,0.00094429,0.000682754,0.00026516,0.0585426,0.000259247,0.00123108,0.0165408,-0.02116,0.00109676,0.00149731,-0.00867371
47,3,0,0,0,0,0,0,231.8,254,0,0,0,0,0,0,0,231.8,766,0,0.000730935,0.000874176,0.00166065,0.0162429,0.0188397,0.00109688,0.00114052,0.000570335,0.0461448,0.000602569,0.00104034,0.0174563,-0.0203589,0.00117306,0.000505486,-0.00829224
47,4,0,0,0,0,0,0,231.8,254,0,0,0,0,0,0,0,231.8,766,0,-0.000871238,0.000683441,0.000783272,0.0154037,0.0173138,0.000829849,-0.00027092,-1.86916e-06,-0.0701653,6.85118e-05,0.000811462,0.0191348,-0.020397,0.000486412,0.00103954,-0.00974182
47,5,0,0,0,0,0,0,231.8,254,0,0,0,0,0,0,0,231.8,766,0,0.000235024,0.000111236,0.000325508,0.0168914,0.0204037,-0.000657883,0.000873489,0.00026516,0.076052,0.000411835,4.85228e-05,0.0176471,-0.0214651,-0.000276527,0.000658073,-0.00829224
47,6,0,0,0,0,0,0,231.8,254,0,0,0,0,0,0,0,231.8,766,0,4.4289e-05,-0.00019394,5.84793e-05,0.0156326,0.0182293,6.69097e-05,-0.000461655,0.00026516,0.041796,0.000602569,0.000925903,0.0151675,-0.0210837,-9.49856e-06,0.000772514,-0.00886444
47,7,0,0,0,0,0,0,231.8,254,0,0,0,0,0,0,0,231.8,766,0,6.14207e-06,-3.20468e-06,-0.000246697,0.0144119,0.0117062,-4.75312e-05,0.00049202,3.62778e-05,-0.067991,6.85118e-05,0.000201111,0.0108569,-0.0216559,0.000104942,-0.000829658,-0.00909332
47,8,0,0,0,0,0,0,231.8,254,0,0,0,0,0,0,0,231.8,766,0,-0.000566063,0.000263824,0.000974007,0.0162048,0.0106762,0.000105057,0.000224991,-0.000612221,0.0823081,0.000678863,-0.000523682,0.00902584,-0.0200156,0.000524559,-0.000600777,-0.00840668
47,9,0,0,0,0,0,0,231.8,254,0,0,0,0,0,0,0,231.8,766,0,0.000578347,-0.00019394,0.000516243,0.0160904,0.0118206,-0.00069603,0.000186844,0.000303307,0.0542701,0.000564422,0.00058258,0.00959804,-0.0208167,0.000143089,0.000886955,-0.00894073
48,0,0,0,0,0,0,0,231.8,254,0,0,0,0,0,0,0,231.8,766,0,0.000235024,0.000416412,0.000516243,0.0160522,0.00792965,0.000639114,0.000797195,-0.000650368,-0.0703179,-0.000389252,0.00046814,0.0122302,-0.0206259,0.000867882,0.000734367,-0.0100089
48,1,0,0,0,0,0,0,231.8,254,0,0,0,0,0,0,0,231.8,766,0,0.000463906,0.000301971,0.00188953,0.0166244,0.00709042,0.00159279,0.000720901,0.000532188,0.0840629,0.000297394,0.00126923,0.0140994,-0.0203207,0.00144009,0.00206951,-0.00825409
48,2,0,0,0,0,0,0,231.8,254,0,0,0,0,0,0,0,231.8,766,0,0.00115055,-3.20468e-06,0.00055439,0.0166244,0.0115536,0.000906143,0.000644607,-7.81631e-05,0.0636924,0.000640716,0.000811462,0.0118106,-0.0221899,0.00132565,0.00176434,-0.00882629
48,3,0,0,0,0,0,0,231.8,254,0,0,0,0,0,0,0,231.8,766,0,-7.01519e-05,0.000225677,0.000363655,0.0156326,0.00846371,0.000181351,0.00060646,7.44248e-05,-0.0900399,0.000564422,0.000620727,0.0117724,-0.0208548,-0.000505409,0.000886955,-0.00890259
48,4,0,0,0,0,0,0,231.8,254,0,0,0,0,0,0,0,231.8,766,0,0.0005402,0.00117935,0.000363655,0.0160141,0.00659451,0.00102058,0.00102608,7.44248e-05,-0.0234734,0.000488129,-0.000104065,0.00959804,-0.0208548,0.00124935,-0.00018116,-0.00875
48,5,0,0,0,0,0,0,231.8,254,0,0,0,0,0,0,0,231.8,766,0,8.2436e-05,0.000225677,0.00154621,0.0176162,0.0053738,0.000524673,0.000568314,-1.86916e-06,-0.0111138,0.00132736,0.00161255,0.00936916,-0.0202444,0.0012112,0.000734367,-0.00928406
48,6,0,0,0,0,0,0,231.8,254,0,0,0,0,0,0,0,231.8,766,0,4.4289e-05,0.000874176,0.00143177,0.0160522,0.00998959,0.00170723,0.000720901,0.000227013,0.0553001,0.000945892,0.00145996,0.0104373,-0.0193671,0.000715294,0.00142101,-0.00844482
48,7,0,0,0,0,0,0,231.8,254,0,0,0,0,0,0,0,231.8,766,0,0.000997963,0.000225677,0.000363655,0.0162429,0.00751003,0.000600967,7.24029e-05,0.000341454,-0.0369775,0.000564422,0.000429993,0.0103228,-0.0205115,6.67954e-05,-0.000104866,-0.00905518
48,8,0,0,0,0,0,0,231.8,254,0,0,0,0,0,0,0,231.8,766,0,-0.000451622,-0.000575409,-0.00020855,0.0157089,0.00468716,0.000410232,-0.000499802,-7.81631e-05,-0.0114571,3.03648e-05,-0.000142212,0.0106662,-0.0208929,0.00102047,0.000238457,-0.00920776
48,9,0,0,0,0,0,0,231.8,254,0,0,0,0,0,0,0,231.8,766,0,0.000387612,0.000416412,0.000783272,0.0148315,0.0047253,0.000105057,0.000339432,0.000684776,0.0592673,-8.40761e-05,-0.00124847,0.0102847,-0.021694,-8.57925e-05,0.00145916,-0.00886444
49,0,0,0,0,0,0,0,231.8,254,0,0,0,0,0,0,0,231.8,766,0,0.000692788,0.000111236,0.000478096,0.0155944,0.00274166,-0.000390854,-0.00027092,-1.86916e-06,-0.0315224,0.000869598,1.03759e-05,0.014519,-0.0212363,0.000295677,0.00069622,-0.00859741
49,1,0,0,0,0,0,0,231.8,254,0,0,0,0,0,0,0,231.8,766,0,-7.01519e-05,-7.94986e-05,0.000592537,0.0157089,0.00514492,0.000105057,0.000339432,0.000303307,-0.00241631,-0.000694428,-0.000905151,0.0181811,-0.0218466,-4.76455e-05,0.000925102,-0.00741486
49,2,0,0,0,0,0,0,231.8,254,0,0,0,0,0,0,0,231.8,766,0,0.000311318,0.000111236,0.000859566,0.0162811,0.00461086,0.000410232,0.000873489,0.000608482,0.0774635,6.85118e-05,0.00123108,0.0180667,-0.0210455,0.000867882,0.000772514,-0.00920776
49,3,0,0,0,0,0,0,231.8,254,0,0,0,0,0,0,0,231.8,766,0,-7.01519e-05,0.000797882,0.000439949,0.0164337,0.00567898,0.00056282,-0.000156479,-0.000917397,-0.0253426,0.00174698,0.000162964,0.0131839,-0.0205115,0.00117306,-0.000753365,-0.0081015
49,4,0,0,0,0,0,0,231.8,254,0,0,0,0,0,0,0,231.8,766,0,0.000845375,0.00018753,0.000706978,0.0160522,0.00483974,0.000295792,0.000415726,0.000532188,-0.0031411,0.000755157,0.000658874,0.0165026,-0.0209311,0.000371971,0.000314751,-0.00852112
49,5,0,0,0,0,0,0,231.8,254,0,0,0,0,0,0,0,231.8,766,0,8.2436e-05,0.000797882,0.000783272,0.0165481,0.00411495,0.000906143,0.0020179,0.00076107,0.0876106,0.00121292,0.000887756,0.0160067,-0.0201682,0.00151638,0.000314751,-0.00890259
49,6,0,0,0,0,0,0,231.8,254,0,0,0,0,0,0,0,231.8,766,0,-7.01519e-05,3.49423e-05,0.000668831,0.0173874,0.00422939,0.00178352,0.000835342,0.000722923,-0.0225198,0.000869598,-0.000981445,0.0132602,-0.0208167,0.00147823,0.00134472,-0.00737671
49,7,0,0,0,0,0,0,231.8,254,0,0,0,0,0,0,0,231.8,766,0,0.000845375,0.000492706,0.000325508,0.015747,0.00232204,0.000639114,0.00060646,0.000532188,-0.0383889,0.0002211,0.000124817,0.0147097,-0.0207404,2.86484e-05,0.000848808,-0.00886444
49,8,0,0,0,0,0,0,231.8,254,0,0,0,0,0,0,0,231.8,766,0,-0.000184593,0.00110306,0.00127918,0.0157089,0.00384792,0.000715408,0.000759048,-0.000383339,-0.00451439,0.000869598,0.00046814,0.0169986,-0.0210455,0.000639,0.000276604,-0.00871185
49,9,0,0,0,0,0,0,231.8,254,0,0,0,0,0,0,0,231.8,766,0,-3.20049e-05,7.30893e-05,0.00112659,0.0161666,0.00499233,0.00109688,0.000911636,0.000570335,0.0372947,-0.000579987,0.000162964,0.0191729,-0.0208167,0.00155453,0.00210766,-0.00886444
50,0,0,0,0,0,0,0,231.8,254,0,0,0,0,0,0,0,231.8,766,0,0.00103611,-0.000232087,0.00108845,0.0177307,0.00281796,0.00056282,0.00133125,0.000303307,0.0344718,0.00159439,0.000773315,0.0189822,-0.0212744,0.00178341,0.000352898,-0.00703339
50,1,0,0,0,0,0,0,231.8,254,0,0,0,0,0,0,0,231.8,766,0,0.000311318,7.30893e-05,0.000439949,0.0162811,0.00335201,0.00056282,-0.000804977,7.44248e-05,-0.0401055,-7.78213e-06,0.000735168,0.0171893,-0.0199774,0.000371971,-6.6719e-05,-0.00840668
50,2,0,0,0,0,0,0,231.8,254,0,0,0,0,0,0,0,231.8,766,0,0.00122685,-7.94986e-05,0.000478096,0.0170822,0.00133022,-9.38424e-06,-0.000461655,0.000989952,0.0500739,3.03648e-05,0.0010022,0.0164264,-0.0208167,0.00105862,0.000619926,-0.00859741
50,3,0,0,0,0,0,0,231.8,254,0,0,0,0,0,0,0,231.8,766,0,6.14207e-06,-0.000537262,0.000134773,0.0159378,-0.00172153,0.000677261,-0.000385361,0.000227013,0.0331748,0.000945892,-0.000905151,0.0175326,-0.0216177,0.00025753,-0.000333748,-0.00989441
50,4,0,0,0,0,0,0,231.8,254,0,0,0,0,0,0,0,231.8,766,0,-0.000260887,-0.00019394,-0.00020855,0.015747,0.000147667,0.000524673,-0.000576096,0.000227013,-0.0367486,-7.78213e-06,1.03759e-05,0.019974,-0.0214651,0.00113491,0.000925102,-0.00955109
50,5,0,0,0,0,0,0,231.8,254,0,0,0,0,0,0,0,231.8,766,0,0.000578347,-0.000804291,9.66262e-05,0.0162048,-0.00103489,0.000257645,-0.000194626,0.000608482,0.0600684,-0.000427399,-0.000905151,0.0161593,-0.0218085,-4.76455e-05,-6.6719e-05,-0.00848297
50,6,0,0,0,0,0,0,231.8,254,0,0,0,0,0,0,0,231.8,766,0,-0.000451622,0.00018753,-0.00070446,0.0149841,-0.00252262,0.000257645,0.000453873,0.00118069,0.0427879,-0.000389252,-6.59181e-05,0.014786,-0.0214651,-9.49856e-06,0.000810661,-0.00875
50,7,0,0,0,0,0,0,231.8,254,0,0,0,0,0,0,0,231.8,766,0,0.000502053,3.49423e-05,-0.000971489,0.0158233,-0.0027515,0.000105057,0.000148697,0.000989952,-0.0409066,0.000373688,0.000544433,0.0124591,-0.021694,0.00117306,0.00130657,-0.00802521
50,8,0,0,0,0,0,0,231.8,254,0,0,0,0,0,0,0,231.8,766,0,0.000959816,-3.20468e-06,0.000592537,0.0170059,-0.00523106,0.00136391,0.00167458,0.0010281,0.062548,0.00125107,0.000620727,0.0131076,-0.0218848,0.00102047,0.00058178,-0.00775818
50,9,0,0,0,0,0,0,231.8,254,0,0,0,0,0,0,0,231.8,766,0,-0.000566063,0.000378265,0.000134773,0.0159378,-0.00576511,0.000410232,0.000377579,0.000341454,0.0502647,-0.000503693,1.03759e-05,0.0123828,-0.0208167,0.000677147,0.000314751,-0.00783447
51,0,0,0,0,0,0,0,231.8,254,0,0,0,0,0,0,0,231.8,766,0,4.4289e-05,-0.000117646,0.000478096,0.0169677,-0.00298038,0.000181351,0.000263138,0.000188866,-0.0555169,0.0020903,0.000277405,0.0108187,-0.0210074,0.000333824,-0.000753365,-0.00920776
51,1,0,0,0,0,0,0,231.8,254,0,0,0,0,0,0,0,231.8,766,0,-0.00022274,0.000607147,0.000821419,0.017044,-0.00122562,0.00105873,0.000263138,0.000455895,-0.0118005,0.000526275,0.000658874,0.0109332,-0.0200919,0.00155453,0.00107769,-0.00798706
51,2,0,0,0,0,0,0,231.8,254,0,0,0,0,0,0,0,231.8,766,0,0.000311318,0.000759735,0.000974007,0.0162811,-0.00256077,0.00113502,0.000835342,0.000951805,0.0044883,0.000564422,-0.00117218,0.00978878,-0.0207404,0.0012112,0.00168804,-0.00951294
51,3,0,0,0,0,0,0,231.8,254,0,0,0,0,0,0,0,231.8,766,0,0.00130314,0.000683441,0.00112659,0.0160141,0.000262108,0.000295792,0.00117867,0.00148586,0.0627006,0.000640716,0.00046814,0.0104754,-0.0203589,0.000448265,0.00119213,-0.00699524
51,4,0,0,0,0,0,0,231.8,254,0,0,0,0,0,0,0,231.8,766,0,0.000235024,0.00201858,0.00177509,0.0172348,0.00277981,0.00136391,0.00125496,0.000684776,-0.0237405,0.00178513,0.0015744,0.0114291,-0.0202826,0.00269894,0.00149731,-0.00821594
51,5,0,0,0,0,0,0,231.8,254,0,0,0,0,0,0,0,231.8,766,0,0.000807228,0.00018753,0.000897713,0.0171203,0.000834313,0.00136391,0.00148384,0.000646629,-0.00111931,0.0015181,0.000162964,0.0107043,-0.0209311,0.000791588,0.000429192,-0.00798706
51,6,0,0,0,0,0,0,231.8,254,0,0,0,0,0,0,0,231.8,766,0,0.000616494,0.00095047,0.000706978,0.0168914,0.00541195,0.000600967,0.00129311,0.000799217,0.06827,0.000869598,0.000162964,0.014252,-0.0211218,0.00124935,0.000810661,-0.007453
