Devices
1000
,,North - Force,,,North - Moment,,,North - CoP,,,South - Force,,,South - Moment,,,South - CoP,,,EMG - Voltage,,,,,,,,,,,,,,,,
Frame,Sub Frame,Fx,Fy,Fz,Mx,My,Mz,Cx,Cy,Cz,Fx,Fy,Fz,Mx,My,Mz,Cx,Cy,Cz,1,2,3,TA,5,Sol,7,8,VL,RF,BF,GlutMed,GlutMax,14,MedGast,16
,,N,N,N,N.mm,N.mm,N.mm,mm,mm,mm,N,N,N,N.mm,N.mm,N.mm,mm,mm,mm,V,V,V,V,V,V,V,V,V,V,V,V,V,V,V,V
1,0,0,0,0,0,0,0,231.8,254,0,0,0,0,0,0,0,231.8,766,0,0.000692788,0.00152267,0.000668831,0.0169677,0.00800594,0.00166908,0.000148697,0.00114254,0.107638,0.000640716,0.000391846,0.0149005,-0.02013,0.00208858,0.000925102,-0.00859741
1,1,0,0,0,0,0,0,231.8,254,0,0,0,0,0,0,0,231.8,766,0,0.000921669,0.000797882,-0.000246697,0.0162811,0.00609859,0.00109688,0.0013694,0.000875511,-0.0319421,0.0014418,8.66698e-05,0.0136035,-0.0202063,0.0012875,0.000734367,-0.00787262
1,2,0,0,0,0,0,0,231.8,254,0,0,0,0,0,0,0,231.8,766,0,0.000463906,0.000378265,0.000897713,0.0160522,0.00419125,0.00056282,0.00121681,0.0010281,-0.0354516,0.000106659,0.00058258,0.0063937,-0.0213889,0.000600853,0.00161175,-0.00791077
1,3,0,0,0,0,0,0,231.8,254,0,0,0,0,0,0,0,231.8,766,0,0.000959816,0.00110306,-0.00100964,0.015747,0.00323757,-0.000429001,0.000873489,-1.86916e-06,0.122439,0.000182953,-0.000142212,-0.00211308,-0.0219229,0.000410118,8.58689e-05,-0.0093985
1,4,0,0,0,0,0,0,231.8,254,0,0,0,0,0,0,0,231.8,766,0,0.000349465,0.000683441,0.000706978,0.0174255,0.00365719,-0.000200119,-8.0185e-05,0.00144772,-0.0291573,0.000945892,0.000887756,0.00635555,-0.0202063,0.000295677,0.000772514,-0.00726227
1,5,0,0,0,0,0,0,231.8,254,0,0,0,0,0,0,0,231.8,766,0,0.00015873,0.000988617,0.000592537,0.0163192,0.00335201,0.000219498,-0.000232773,-0.0015659,-0.035299,0.000831451,-0.000752564,0.00986507,-0.0212363,0.000791588,0.000848808,-0.00878815
1,6,0,0,0,0,0,0,231.8,254,0,0,0,0,0,0,0,231.8,766,0,0.00107426,0.000454559,0.000974007,0.0163192,0.00171169,0.000333939,0.000377579,0.000913658,0.125414,0.0015181,0.000925903,0.00875881,-0.0210455,0.000753441,0.00168804,-0.00840668
1,7,0,0,0,0,0,0,231.8,254,0,0,0,0,0,0,0,231.8,766,0,0.00130314,0.00159897,0.00135548,0.01651,0.00186428,0.00155464,0.0013694,0.00110439,-0.0227868,0.000564422,0.000353699,0.0137179,-0.0197867,0.00170712,0.00123028,-0.00825409
1,8,0,0,0,0,0,0,231.8,254,0,0,0,0,0,0,0,231.8,766,0,6.14207e-06,0.000492706,0.000592537,0.0163955,0.00316128,-0.00069603,0.000186844,0.000989952,-0.0845086,0.000335541,0.000162964,0.0166552,-0.0208548,0.000143089,0.000658073,-0.0075293
1,9,0,0,0,0,0,0,231.8,254,0,0,0,0,0,0,0,231.8,766,0,0.000883522,0.000492706,0.000706978,0.0168914,0.00552639,0.000410232,0.00060646,0.000837364,-0.0194299,0.000869598,0.000773315,0.0145953,-0.0213889,0.000410118,0.000963249,-0.00859741
2,0,0,0,0,0,0,0,231.8,254,0,0,0,0,0,0,0,231.8,766,0,-0.000146446,0.0011412,0.000745125,0.0165863,0.00483974,0.000867996,0.00102608,-0.000383339,0.0447715,0.000831451,0.00058258,0.0152056,-0.0219229,0.000295677,-0.000600777,-0.0093222
2,1,0,0,0,0,0,0,231.8,254,0,0,0,0,0,0,0,231.8,766,0,0.00141758,0.00095047,0.000287361,0.0170822,0.00651821,0.00056282,0.000568314,0.00110439,0.0686134,0.000755157,0.00123108,0.0243609,-0.02013,0.00216488,0.000734367,-0.00924591
2,2,0,0,0,0,0,0,231.8,254,0,0,0,0,0,0,0,231.8,766,0,0.000387612,-7.94986e-05,0.000478096,0.0169677,0.00552639,0.00132576,0.00049202,0.000341454,-0.0854623,0.000755157,1.03759e-05,0.0256198,-0.019863,0.00147823,0.000963249,-0.00943665
2,3,0,0,0,0,0,0,231.8,254,0,0,0,0,0,0,0,231.8,766,0,0.000349465,-7.94986e-05,5.84793e-05,0.0153274,0.00560268,0.000181351,-8.0185e-05,0.000913658,0.0617469,-7.78213e-06,-0.000752564,0.0171511,-0.0228003,-0.00107761,0.000314751,-0.00798706
2,4,0,0,0,0,0,0,231.8,254,0,0,0,0,0,0,0,231.8,766,0,0.000578347,0.00095047,0.000630684,0.0157852,0.00606045,0.000906143,-0.000194626,0.000379601,0.0644553,0.00109848,0.000506287,0.0154727,-0.0199011,0.00113491,0.000505486,-0.00802521
2,5,0,0,0,0,0,0,231.8,254,0,0,0,0,0,0,0,231.8,766,0,0.00103611,0.00148453,0.00112659,0.016777,0.00800594,0.000715408,0.000759048,0.000799217,-0.0804269,-0.000503693,0.000391846,0.0166171,-0.0215414,0.000829735,0.00145916,-0.00859741
2,6,0,0,0,0,0,0,231.8,254,0,0,0,0,0,0,0,231.8,766,0,0.00115055,0.000149383,0.000630684,0.0171203,0.00644192,0.000791702,0.00125496,0.0010281,0.0650657,0.000411835,8.66698e-05,0.0137942,-0.02116,0.0012112,0.00191692,-0.00707153
2,7,0,0,0,0,0,0,231.8,254,0,0,0,0,0,0,0,231.8,766,0,0.000959816,0.000721588,-9.41086e-05,0.0169677,0.00888332,0.00094429,0.000759048,0.00125698,0.0804389,-0.000198517,0.000735168,0.0145572,-0.020397,0.00136379,0.00107769,-0.00878815
2,8,0,0,0,0,0,0,231.8,254,0,0,0,0,0,0,0,231.8,766,0,0.00137943,0.00018753,0.000821419,0.0160141,0.00915035,0.000105057,0.00167458,0.000913658,-0.082029,0.00117477,-6.59181e-05,0.0132983,-0.0216559,0.000753441,0.00130657,-0.00829224
2,9,0,0,0,0,0,0,231.8,254,0,0,0,0,0,0,0,231.8,766,0,0.00122685,0.00144638,0.000401802,0.0167389,0.00377163,0.000791702,0.00106422,0.00125698,0.0663245,0.000640716,-0.0002948,0.0108187,-0.0210074,0.0012875,-0.000295601,-0.00829224
3,0,0,0,0,0,0,0,231.8,254,0,0,0,0,0,0,0,231.8,766,0,0.000959816,-3.20468e-06,0.00116474,0.0175399,0.00358089,0.00109688,0.000682754,0.000303307,0.0898231,0.00136551,0.000201111,0.0157016,-0.0198248,0.000677147,0.000772514,-0.00836853
3,1,0,0,0,0,0,0,231.8,254,0,0,0,0,0,0,0,231.8,766,0,0.000845375,0.000225677,0.000134773,0.0163574,0.00430569,0.00056282,0.000377579,0.00118069,-0.096296,0.000564422,0.000697021,0.0140231,-0.0213889,0.000410118,0.0010014,-0.00855927
3,2,0,0,0,0,0,0,231.8,254,0,0,0,0,0,0,0,231.8,766,0,0.0005402,0.000607147,0.00055439,0.0166244,0.00380978,0.00102058,0.00114052,-1.86916e-06,-0.0358712,0.000182953,0.000391846,0.0180285,-0.0208167,0.000906029,0.000848808,-0.007453
3,3,0,0,0,0,0,0,231.8,254,0,0,0,0,0,0,0,231.8,766,0,0.000959816,0.000645294,0.000821419,0.0162429,0.00243649,0.000600967,0.000911636,0.00076107,-0.00577324,-0.000274811,0.000620727,0.0148242,-0.0210837,0.000371971,0.00145916,-0.00829224
3,4,0,0,0,0,0,0,231.8,254,0,0,0,0,0,0,0,231.8,766,0,0.000425759,3.49423e-05,0.000249214,0.0161666,0.000681725,2.87627e-05,-0.000232773,-7.81631e-05,0.100046,0.000831451,0.000544433,0.0120395,-0.0206259,0.000982323,0.00103954,-0.00794891
3,5,0,0,0,0,0,0,231.8,254,0,0,0,0,0,0,0,231.8,766,0,0.000730935,0.000340118,-0.000170403,0.0164718,0.000910606,2.87627e-05,0.000339432,-0.000268898,-0.0311791,0.000411835,0.00107849,0.0122302,-0.0216559,0.000524559,0.000734367,-0.00813965
3,6,0,0,0,0,0,0,231.8,254,0,0,0,0,0,0,0,231.8,766,0,0.000883522,0.00159897,0.000783272,0.0153274,0.00274166,0.000257645,-0.000385361,0.000532188,-0.0322472,0.000526275,0.00172699,0.012955,-0.0208167,0.000295677,0.00164989,-0.00897888
3,7,0,0,0,0,0,0,231.8,254,0,0,0,0,0,0,0,231.8,766,0,0.000997963,0.00125565,0.00108845,0.0157089,0.00548824,0.0014402,0.00114052,0.000341454,0.110613,0.000335541,0.000162964,0.0167315,-0.02013,0.000600853,0.00134472,-0.00730042
3,8,0,0,0,0,0,0,231.8,254,0,0,0,0,0,0,0,231.8,766,0,0.000578347,0.000759735,0.00135548,0.0158615,0.00956997,-9.38424e-06,0.000339432,0.00114254,-0.030111,0.000526275,0.000735168,0.0133746,-0.0202063,0.000448265,0.00199322,-0.00867371
3,9,0,0,0,0,0,0,231.8,254,0,0,0,0,0,0,0,231.8,766,0,0.000502053,0.000912323,0.000211067,0.0172729,0.011134,0.00109688,0.00121681,0.000799217,-0.0327813,0.000488129,0.00180328,0.0105517,-0.0204733,0.00124935,0.000429192,-0.00867371
4,0,0,0,0,0,0,0,231.8,254,0,0,0,0,0,0,0,231.8,766,0,0.000997963,0.00152267,0.00135548,0.0163574,0.0105236,0.00178352,0.0020179,0.00148586,0.125338,0.00117477,0.000201111,0.0108187,-0.0195578,0.00159267,0.0010014,-0.00848297
4,1,0,0,0,0,0,0,231.8,254,0,0,0,0,0,0,0,231.8,766,0,0.00122685,0.000492706,0.000516243,0.0162048,0.00758633,0.000906143,0.000224991,0.000989952,-0.025686,-8.40761e-05,0.00172699,0.016846,-0.0206641,0.000677147,0.00187878,-0.00875
4,2,0,0,0,0,0,0,231.8,254,0,0,0,0,0,0,0,231.8,766,0,6.14207e-06,-0.0013002,-0.00104778,0.0159759,0.00842556,2.87627e-05,0.000453873,-0.000459633,-0.0332772,0.000869598,0.000620727,0.0190203,-0.0200537,0.000753441,0.000238457,-0.00821594
4,3,0,0,0,0,0,0,231.8,254,0,0,0,0,0,0,0,231.8,766,0,-7.01519e-05,0.000988617,-0.000132256,0.0153656,0.00468716,0.000791702,0.00102608,0.000341454,0.126826,-0.000770722,8.66698e-05,0.0148242,-0.0193289,0.000982323,0.000848808,-0.00890259
4,4,0,0,0,0,0,0,231.8,254,0,0,0,0,0,0,0,231.8,766,0,0.00115055,0.00133194,0.000630684,0.016777,0.00388607,0.00124947,0.0013694,0.000837364,-0.0195824,6.85118e-05,0.000391846,0.0144046,-0.0203589,0.00197414,0.00130657,-0.00916962
4,5,0,0,0,0,0,0,231.8,254,0,0,0,0,0,0,0,231.8,766,0,-0.00022274,0.0011412,0.000821419,0.0160904,0.00514492,0.00124947,0.000301285,0.000379601,-0.0808846,0.00117477,-0.000867005,0.0110858,-0.0207785,0.000677147,0.0010014,-0.0062323
4,6,0,0,0,0,0,0,231.8,254,0,0,0,0,0,0,0,231.8,766,0,0.000959816,0.000569,0.000859566,0.0165481,0.00651821,0.00136391,0.000911636,-0.00049778,-0.0164544,0.000640716,0.000773315,0.011658,-0.0205115,0.000715294,0.00107769,-0.00882629
4,7,0,0,0,0,0,0,231.8,254,0,0,0,0,0,0,0,231.8,766,0,0.00015873,-0.00103317,0.000630684,0.0164718,0.00548824,0.000677261,0.00121681,-7.81631e-05,0.0450767,6.85118e-05,0.00142181,0.0121539,-0.0205115,0.000867882,0.00069622,-0.00787262
4,8,0,0,0,0,0,0,231.8,254,0,0,0,0,0,0,0,231.8,766,0,0.000502053,0.000416412,0.000592537,0.0157089,0.0029324,0.000105057,-0.000232773,0.000608482,0.0706733,0.00071701,-0.000447388,0.0131839,-0.0209311,0.0012875,0.000925102,-0.00844482
4,9,0,0,0,0,0,0,231.8,254,0,0,0,0,0,0,0,231.8,766,0,0.000502053,0.000530853,0.000821419,0.0157089,0.00010952,0.00113502,0.000720901,0.000913658,-0.0818002,0.00205215,0.000391846,0.0132602,-0.0217703,0.000906029,0.00130657,-0.00813965
5,0,0,0,0,0,0,0,231.8,254,0,0,0,0,0,0,0,231.8,766,0,8.2436e-05,0.000836029,0.00108845,0.0168533,-0.00278965,0.00151649,0.00121681,0.000646629,0.0619758,0.00132736,-0.000371094,0.0101321,-0.0205115,0.000600853,0.00103954,-0.00733856
5,1,0,0,0,0,0,0,231.8,254,0,0,0,0,0,0,0,231.8,766,0,0.00157017,0.0011412,0.00112659,0.0158233,0.000643578,0.00151649,0.000682754,0.000227013,0.0665153,0.00128921,0.000620727,0.0173037,-0.0197104,0.0012875,0.00111584,-0.00714783
5,2,0,0,0,0,0,0,231.8,254,0,0,0,0,0,0,0,231.8,766,0,0.000578347,0.000416412,0.00101215,0.0161285,0.00117764,0.000143204,0.00163643,0.000646629,-0.0780618,0.0002211,0.00046814,0.0235598,-0.0204733,0.0012112,0.00260357,-0.00775818
5,3,0,0,0,0,0,0,231.8,254,0,0,0,0,0,0,0,231.8,766,0,4.4289e-05,0.000111236,0.000211067,0.0157089,-0.00240818,0.000600967,0.000530167,-4.00161e-05,0.0664771,0.000945892,-0.000523682,0.0149005,-0.0210074,-4.76455e-05,0.000162163,-0.00791077
5,4,0,0,0,0,0,0,231.8,254,0,0,0,0,0,0,0,231.8,766,0,0.000997963,0.000836029,0.000516243,0.0157852,-0.000958595,0.00132576,0.000568314,-0.000421486,0.0811637,0.000984039,0.00134552,0.0175326,-0.0202063,0.00174526,0.00119213,-0.00897888
5,5,0,0,0,0,0,0,231.8,254,0,0,0,0,0,0,0,231.8,766,0,0.00134129,0.000683441,0.000668831,0.0162048,-0.00145451,0.00102058,0.00178902,0.0010281,-0.080732,0.000869598,0.00058258,0.0226062,-0.0192908,0.00151638,0.0010014,-0.00836853
5,6,0,0,0,0,0,0,231.8,254,0,0,0,0,0,0,0,231.8,766,0,-0.000108299,-0.000117646,0.000592537,0.0154037,-0.00233189,0.000715408,0.000415726,-1.86916e-06,0.0661338,0.000373688,0.000315552,0.0221865,-0.0215796,0.000371971,0.000734367,-0.00859741
5,7,0,0,0,0,0,0,231.8,254,0,0,0,0,0,0,0,231.8,766,0,0.000997963,3.49423e-05,0.000630684,0.0166626,0.00140652,0.000410232,0.000720901,0.000112572,0.0903571,0.00106033,0.000658874,0.0263064,-0.02116,0.00105862,0.00149731,-0.010047
5,8,0,0,0,0,0,0,231.8,254,0,0,0,0,0,0,0,231.8,766,0,0.000387612,0.00148453,0.000821419,0.0164718,0.00499233,0.00121132,0.00060646,0.000455895,-0.0937402,0.00125107,8.66698e-05,0.022568,-0.020397,0.000219383,0.00058178,-0.00897888
5,9,0,0,0,0,0,0,231.8,254,0,0,0,0,0,0,0,231.8,766,0,0.000120583,0.00018753,0.000783272,0.0157852,0.00495419,0.000867996,0.000682754,-0.00011631,-0.0351464,0.000411835,0.000239258,0.014252,-0.0205496,0.000448265,-0.00018116,-0.00924591
6,0,0,0,0,0,0,0,231.8,254,0,0,0,0,0,0,0,231.8,766,0,0.0011124,0.000912323,0.00219471,0.0163955,0.00400051,0.00132576,0.000911636,-7.81631e-05,-0.00428551,0.00186142,-0.00170624,0.0131076,-0.0197485,0.00136379,0.00184063,-0.00783447
6,1,0,0,0,0,0,0,231.8,254,0,0,0,0,0,0,0,231.8,766,0,0.000692788,0.000530853,0.000745125,0.0168151,0.0047253,2.87627e-05,0.00148384,0.000417748,0.0998176,0.00117477,0.000773315,0.0130313,-0.0209692,0.000639,0.00126843,-0.00764374
6,2,0,0,0,0,0,0,231.8,254,0,0,0,0,0,0,0,231.8,766,0,0.000387612,0.000454559,0.000287361,0.0161666,0.00430569,0.00105873,0.00125496,-0.00011631,-0.0298058,0.0002211,8.66698e-05,0.0147097,-0.0207785,0.00124935,0.000848808,-0.0104285
6,3,0,0,0,0,0,0,231.8,254,0,0,0,0,0,0,0,231.8,766,0,8.2436e-05,0.000645294,-0.000170403,0.01548,0.00628933,0.00056282,-8.0185e-05,-0.000230751,-0.0309884,0.00071701,-0.000409241,0.0173419,-0.0197867,-9.49856e-06,0.000391045,-0.00894073
6,4,0,0,0,0,0,0,231.8,254,0,0,0,0,0,0,0,231.8,766,0,0.0005402,-0.000117646,-1.78147e-05,0.0163192,0.00560268,0.000257645,0.000530167,-0.000612221,0.108897,3.03648e-05,-0.000599976,0.014519,-0.0218466,0.000524559,0.000543633,-0.00882629
6,5,0,0,0,0,0,0,231.8,254,0,0,0,0,0,0,0,231.8,766,0,0.000921669,0.00018753,0.000478096,0.0162048,0.0060223,0.00056282,0.000148697,0.000341454,-0.0289666,0.000488129,0.000239258,0.0125354,-0.0215796,0.00105862,9.57493e-06,-0.00829224
6,6,0,0,0,0,0,0,231.8,254,0,0,0,0,0,0,0,231.8,766,0,0.00160831,0.000797882,0.000516243,0.0158996,0.00819668,0.000829849,0.000949783,0.000188866,-0.0305306,-0.00130478,0.000773315,0.0120776,-0.0204733,0.000791588,0.00107769,-0.00710968
6,7,0,0,0,0,0,0,231.8,254,0,0,0,0,0,0,0,231.8,766,0,0.00179905,0.00125565,-0.000170403,0.0154037,0.00693783,0.00056282,0.00171272,0.000455895,0.124117,0.000602569,-6.59181e-05,0.0123828,-0.0216177,0.000867882,0.000391045,-0.00920776
6,8,0,0,0,0,0,0,231.8,254,0,0,0,0,0,0,0,231.8,766,0,-0.000108299,-0.000766144,0.00196583,0.0160522,0.00583157,0.00128761,0.000911636,-0.000268898,-0.0248467,0.000755157,0.00130737,0.0144046,-0.0201682,0.000600853,-2.8572e-05,-0.00764374
6,9,0,0,0,0,0,0,231.8,254,0,0,0,0,0,0,0,231.8,766,0,0.000769082,0.000530853,0.00135548,0.0156326,0.00609859,0.00147835,0.00110237,-7.81631e-05,-0.0313699,0.00071701,0.000849609,0.0136035,-0.0219611,0.000600853,0.00020031,-0.00802521
7,0,0,0,0,0,0,0,231.8,254,0,0,0,0,0,0,0,231.8,766,0,0.00153202,0.000492706,0.00177509,0.0171585,0.0128506,0.00117317,0.00144569,-0.000383339,0.12652,0.00170883,0.000811462,0.0130313,-0.0199393,0.0018597,0.000925102,-0.00920776
7,1,0,0,0,0,0,0,231.8,254,0,0,0,0,0,0,0,231.8,766,0,0.000883522,0.00117935,0.00158436,0.0168151,0.0102948,0.00109688,0.0013694,0.000913658,-0.0193536,-8.40761e-05,0.0010022,0.0138324,-0.0204733,0.00117306,0.00149731,-0.00897888
7,2,0,0,0,0,0,0,231.8,254,0,0,0,0,0,0,0,231.8,766,0,0.000654641,0.000912323,0.000439949,0.0153656,0.00640377,0.000639114,0.000644607,3.62778e-05,-0.0801598,0.00117477,-0.000104065,0.0063937,-0.0219229,0.000867882,0.00020031,-0.00878815
7,3,0,0,0,0,0,0,231.8,254,0,0,0,0,0,0,0,231.8,766,0,0.000578347,0.000759735,0.000249214,0.0155563,0.00548824,0.000791702,0.000568314,3.62778e-05,-0.0163018,0.00117477,0.000391846,0.00250271,-0.021427,0.000181236,0.00123028,-0.00783447
7,4,0,0,0,0,0,0,231.8,254,0,0,0,0,0,0,0,231.8,766,0,0.00172276,0.000492706,0.000363655,0.0159378,0.00831112,0.000639114,0.000263138,-0.000535927,0.045687,0.000106659,0.000162964,0.0115817,-0.0200156,0.000867882,-0.000982246,-0.00924591
7,5,0,0,0,0,0,0,231.8,254,0,0,0,0,0,0,0,231.8,766,0,0.000120583,-0.000880585,-0.00032299,0.0159378,0.00686153,0.000372085,7.24029e-05,3.62778e-05,0.0688041,0.000564422,0.000162964,0.0177233,-0.0205496,0.0012112,0.00126843,-0.00943665
7,6,0,0,0,0,0,0,231.8,254,0,0,0,0,0,0,0,231.8,766,0,0.00153202,0.000378265,0.00108845,0.017044,0.00720486,0.00132576,0.000720901,0.000227013,-0.0795876,0.00163254,0.00172699,0.0169223,-0.0199011,0.0018597,0.00145916,-0.00730042
7,7,0,0,0,0,0,0,231.8,254,0,0,0,0,0,0,0,231.8,766,0,0.00141758,0.00125565,0.000974007,0.0162048,0.00751003,0.00166908,0.00098793,0.000570335,0.0662101,0.000945892,8.66698e-05,0.0192492,-0.02116,0.00105862,0.000848808,-0.00813965
7,8,0,0,0,0,0,0,231.8,254,0,0,0,0,0,0,0,231.8,766,0,-3.20049e-05,0.00129379,0.00166065,0.01651,0.00422939,0.000639114,0.00117867,0.000455895,0.0607169,0.000602569,0.00096405,0.0201266,-0.0193289,0.000639,0.00115398,-0.00772003
7,9,0,0,0,0,0,0,231.8,254,0,0,0,0,0,0,0,231.8,766,0,0.000349465,0.00095047,-0.000246697,0.0158615,0.00445827,0.000791702,-0.000385361,-0.000230751,-0.0777566,0.00102219,-0.000256653,0.0184481,-0.0208167,0.000639,-6.6719e-05,-0.00829224
8,0,0,0,0,0,0,0,231.8,254,0,0,0,0,0,0,0,231.8,766,0,0.000120583,-0.000499115,0.000401802,0.0161285,0.00689968,2.87627e-05,0.000301285,0.000379601,0.0662482,0.000907745,0.00046814,0.0150149,-0.0202826,-0.000123939,-0.000219307,-0.00913147
8,1,0,0,0,0,0,0,231.8,254,0,0,0,0,0,0,0,231.8,766,0,0.000502053,0.000645294,-0.00020855,0.015747,0.00510677,0.000524673,0.000186844,-0.000268898,0.0794471,-0.000236664,-0.000218506,0.0151294,-0.0211218,0.000562706,0.00103954,-0.00848297
8,2,0,0,0,0,0,0,231.8,254,0,0,0,0,0,0,0,231.8,766,0,0.000997963,0.000378265,0.000592537,0.0158996,0.00529751,0.000639114,0.000797195,0.000799217,-0.0788247,0.000984039,0.000162964,0.0122683,-0.0207404,0.00151638,-6.6719e-05,-0.00871185
8,3,0,0,0,0,0,0,231.8,254,0,0,0,0,0,0,0,231.8,766,0,0.000883522,7.30893e-05,0.0010503,0.016777,0.00358089,0.000181351,0.000644607,0.000455895,0.0662482,0.00132736,0.000773315,0.0153582,-0.0205115,0.000410118,0.000162163,-0.00756744
8,4,0,0,0,0,0,0,231.8,254,0,0,0,0,0,0,0,231.8,766,0,0.00134129,0.0017897,0.00131733,0.01651,0.00262722,0.000410232,0.000797195,-1.86916e-06,0.088755,0.000831451,0.00123108,0.0177615,-0.0207404,0.00147823,0.000429192,-0.00722412
8,5,0,0,0,0,0,0,231.8,254,0,0,0,0,0,0,0,231.8,766,0,0.000769082,0.000836029,0.00112659,0.0166244,0.00171169,0.00136391,0.00106422,0.000799217,-0.0927483,0.00167068,0.00130737,0.0144046,-0.020397,0.0012112,0.00145916,-0.00779633
8,6,0,0,0,0,0,0,231.8,254,0,0,0,0,0,0,0,231.8,766,0,-0.000413475,0.000607147,0.000974007,0.0161285,0.00354275,0.000982437,0.000148697,-0.000726662,-0.0339257,0.000488129,-0.000180359,0.0158923,-0.0223807,-0.00023838,0.000658073,-0.00852112
8,7,0,0,0,0,0,0,231.8,254,0,0,0,0,0,0,0,231.8,766,0,0.00126499,-0.000537262,0.00093586,0.0162811,0.00312313,0.000715408,0.00098793,0.000455895,-0.00382774,0.0002211,0.00126923,0.0165026,-0.0211218,0.00151638,0.00168804,-0.00890259
8,8,0,0,0,0,0,0,231.8,254,0,0,0,0,0,0,0,231.8,766,0,0.00107426,0.000492706,0.000706978,0.0171966,-0.00305668,0.00105873,0.000301285,-1.86916e-06,0.0982917,0.00113663,0.000620727,0.0109332,-0.0203589,0.00113491,0.000314751,-0.00749115
8,9,0,0,0,0,0,0,231.8,254,0,0,0,0,0,0,0,231.8,766,0,0.000845375,0.000797882,0.00143177,0.0168914,-0.0027515,0.00121132,0.00152199,0.00106625,-0.0289285,0.00125107,0.0016507,0.0069659,-0.0208929,0.00231747,0.000238457,-0.00897888
9,0,0,0,0,0,0,0,231.8,254,0,0,0,0,0,0,0,231.8,766,0,0.000845375,-0.000346527,0.00143177,0.0175399,-0.00492588,0.000906143,0.00148384,0.000722923,-0.030111,0.00132736,0.00153625,0.003876,-0.0202826,0.00189785,0.00058178,-0.00875
9,1,0,0,0,0,0,0,231.8,254,0,0,0,0,0,0,0,231.8,766,0,-0.000184593,0.000607147,0.00135548,0.0160904,-0.00324741,0.00132576,0.000263138,0.000684776,0.109049,0.00121292,-2.77711e-05,0.00627926,-0.0207022,0.00105862,0.00153545,-0.00806335
9,2,0,0,0,0,0,0,231.8,254,0,0,0,0,0,0,0,231.8,766,0,0.00160831,0.000111236,-9.41086e-05,0.0154419,-0.00454441,0.00056282,0.000911636,0.000227013,-0.0289666,0.000984039,0.000201111,0.00929287,-0.0204352,0.00109676,0.000734367,-0.00798706
9,3,0,0,0,0,0,0,231.8,254,0,0,0,0,0,0,0,231.8,766,0,-0.000260887,-0.000155793,0.000783272,0.0160141,-0.00427738,0.00102058,0.000682754,0.000570335,-0.0297677,3.03648e-05,-0.00128662,0.00883511,-0.0212744,0.000333824,0.000352898,-0.00852112
9,4,0,0,0,0,0,0,231.8,254,0,0,0,0,0,0,0,231.8,766,0,0.000387612,0.000301971,-0.000132256,0.015747,-0.00118748,0.000257645,-0.000690537,-0.000307045,0.122706,0.000449982,0.000887756,0.0140612,-0.0209311,0.00132565,0.00191692,-0.00886444
9,5,0,0,0,0,0,0,231.8,254,0,0,0,0,0,0,0,231.8,766,0,0.000769082,-0.000651703,0.000745125,0.0167389,-0.00160709,0.00056282,0.000263138,-0.000154457,-0.0247323,0.000640716,0.00142181,0.0117343,-0.0208929,0.00025753,0.00058178,-0.00768188
9,6,0,0,0,0,0,0,231.8,254,0,0,0,0,0,0,0,231.8,766,0,0.00134129,0.00106491,0.000630684,0.0161666,-0.000691566,0.00136391,0.00148384,0.000227013,-0.0306451,-0.000312958,-0.0002948,0.012955,-0.0193289,0.00109676,0.000886955,-0.00829224
9,7,0,0,0,0,0,0,231.8,254,0,0,0,0,0,0,0,231.8,766,0,0.0011124,0.000492706,-1.78147e-05,0.0173492,-0.00122562,0.000333939,0.00106422,0.00144772,0.124842,0.000373688,0.00123108,0.0182574,-0.0196341,0.00136379,0.000124016,-0.00970367
9,8,0,0,0,0,0,0,231.8,254,0,0,0,0,0,0,0,231.8,766,0,-0.000375328,0.00018753,0.000249214,0.0163955,0.00049099,0.000677261,-0.00065239,0.00026516,-0.0198495,-0.000236664,-0.000104065,0.0190585,-0.0209311,0.000143089,0.00069622,-0.00916962
9,9,0,0,0,0,0,0,231.8,254,0,0,0,0,0,0,0,231.8,766,0,0.000387612,0.000569,0.000211067,0.0155182,0.00266537,0.00109688,0.000377579,3.62778e-05,-0.0780618,0.00102219,0.00119293,0.0190585,-0.0207404,0.0012112,0.00119213,-0.00806335
10,0,0,0,0,0,0,0,231.8,254,0,0,0,0,0,0,0,231.8,766,0,0.00107426,0.000378265,-0.00020855,0.0168151,0.00594601,0.00121132,0.000644607,-0.000154457,-0.0163781,0.000564422,-0.000218506,0.0163501,-0.0200537,0.000982323,0.000810661,-0.00741486
10,1,0,0,0,0,0,0,231.8,254,0,0,0,0,0,0,0,231.8,766,0,6.14207e-06,0.00102676,0.000821419,0.0163955,0.00632748,0.000410232,-3.89107e-06,0.00129513,0.046717,0.000297394,0.00046814,0.0150531,-0.0212363,0.0012112,-6.6719e-05,-0.00798706
10,2,0,0,0,0,0,0,231.8,254,0,0,0,0,0,0,0,231.8,766,0,0.00141758,0.000263824,0.000134773,0.0169677,0.00277981,0.000219498,0.0013694,0.000379601,0.0681174,0.0015181,0.00107849,0.0120776,-0.0210074,0.0012875,0.000848808,-0.00977997
10,3,0,0,0,0,0,0,231.8,254,0,0,0,0,0,0,0,231.8,766,0,0.00168461,0.000797882,0.000325508,0.0170822,0.0060223,0.00124947,0.000911636,0.0010281,-0.0800072,0.000373688,0.00123108,0.00902584,-0.0196341,0.00124935,0.000772514,-0.00783447
10,4,0,0,0,0,0,0,231.8,254,0,0,0,0,0,0,0,231.8,766,0,0.00115055,0.00148453,0.00108845,0.0166244,0.00640377,0.000753555,0.000873489,0.000608482,0.0614799,0.000831451,-0.0002948,0.00296047,-0.0215033,0.00182156,0.000848808,-0.00813965
10,5,0,0,0,0,0,0,231.8,254,0,0,0,0,0,0,0,231.8,766,0,0.00115055,0.000683441,0.00154621,0.0169296,0.0053738,0.00136391,0.00117867,0.000684776,0.0655997,0.0015181,0.000620727,0.00963619,-0.0196722,0.00124935,0.00134472,-0.00730042
10,6,0,0,0,0,0,0,231.8,254,0,0,0,0,0,0,0,231.8,766,0,0.000235024,0.000378265,0.00139362,0.0165863,0.00541195,0.000906143,0.000835342,0.000608482,-0.0750481,0.000831451,0.00184143,0.0174945,-0.0199393,0.000982323,0.0010014,-0.00821594
10,7,0,0,0,0,0,0,231.8,254,0,0,0,0,0,0,0,231.8,766,0,0.000959816,0.000912323,0.0010503,0.0168533,0.00529751,0.000753555,0.00106422,0.000646629,0.0644172,6.85118e-05,0.000887756,0.0182956,-0.0223425,0.000906029,9.57493e-06,-0.00970367
10,8,0,0,0,0,0,0,231.8,254,0,0,0,0,0,0,0,231.8,766,0,6.14207e-06,0.000759735,0.00127918,0.0158996,0.00541195,0.000906143,0.000759048,0.000722923,0.0807441,0.000373688,0.000544433,0.018677,-0.0194815,0.00151638,0.000658073,-0.00806335
10,9,0,0,0,0,0,0,231.8,254,0,0,0,0,0,0,0,231.8,766,0,0.000807228,0.000874176,0.00120289,0.016777,0.00438198,0.000906143,0.000911636,0.000227013,-0.0772607,0.000449982,0.000201111,0.0176089,-0.0212744,0.000677147,0.00153545,-0.00943665
11,0,0,0,0,0,0,0,231.8,254,0,0,0,0,0,0,0,231.8,766,0,0.000196877,0.00106491,-0.000246697,0.0152511,0.00525936,-0.000276413,-0.000156479,0.000188866,0.0664008,0.000640716,-0.000447388,0.0192492,-0.0210074,0.000753441,0.000734367,-0.0093985
11,1,0,0,0,0,0,0,231.8,254,0,0,0,0,0,0,0,231.8,766,0,-0.000184593,0.00095047,0.00093586,0.0159759,0.00712856,0.000867996,0.000911636,0.000494041,0.0878013,-0.000656281,0.000277405,0.0203173,-0.0209311,0.00025753,0.000162163,-0.00897888
11,2,0,0,0,0,0,0,231.8,254,0,0,0,0,0,0,0,231.8,766,0,0.000120583,0.000797882,0.000516243,0.0169677,0.00934109,0.000486526,0.00110237,0.00133327,-0.0920617,0.000106659,0.000887756,0.0224536,-0.0202826,0.00105862,0.000810661,-0.00875
11,3,0,0,0,0,0,0,231.8,254,0,0,0,0,0,0,0,231.8,766,0,0.000387612,0.000149383,-1.78147e-05,0.0153656,0.00777706,0.000715408,0.000224991,0.000112572,-0.0335442,0.000488129,0.000239258,0.0184481,-0.0199393,0.000486412,0.000543633,-0.00878815
11,4,0,0,0,0,0,0,231.8,254,0,0,0,0,0,0,0,231.8,766,0,0.000959816,0.000569,2.03323e-05,0.0165481,0.00861629,0.000257645,0.000339432,0.00114254,-0.00367516,0.000526275,0.000391846,0.0200503,-0.0208929,-0.000543556,0.00164989,-0.00806335
11,5,0,0,0,0,0,0,231.8,254,0,0,0,0,0,0,0,231.8,766,0,0.000311318,0.000492706,0.000783272,0.0162429,0.00464901,0.000181351,0.000453873,0.000150719,0.0977576,0.000793304,0.000887756,0.0199359,-0.0210455,0.000524559,0.00058178,-0.0105429
11,6,0,0,0,0,0,0,231.8,254,0,0,0,0,0,0,0,231.8,766,0,0.000387612,-4.13517e-05,-0.000361137,0.0149841,0.00266537,-9.38424e-06,-0.000232773,0.000837364,-0.0284325,6.85118e-05,-0.000218506,0.0193255,-0.0208167,0.000791588,0.00119213,-0.00871185
11,7,0,0,0,0,0,0,231.8,254,0,0,0,0,0,0,0,231.8,766,0,0.00115055,0.000607147,0.000745125,0.0168533,0.00510677,0.00102058,0.000224991,0.000532188,-0.0302636,0.000602569,0.00168884,0.0184481,-0.0202826,0.00102047,0.00180248,-0.00829224
11,8,0,0,0,0,0,0,231.8,254,0,0,0,0,0,0,0,231.8,766,0,0.000807228,0.00117935,0.000974007,0.016777,0.00312313,0.00121132,0.00117867,0.000341454,0.106264,-0.000579987,0.00123108,0.0174182,-0.0207022,0.0012875,0.000619926,-0.00806335
11,9,0,0,0,0,0,0,231.8,254,0,0,0,0,0,0,0,231.8,766,0,-0.000146446,3.49423e-05,0.00093586,0.0162429,0.00422939,0.00132576,0.000873489,0.000684776,-0.0273263,0.000869598,0.00149811,0.0178759,-0.0202063,0.000562706,0.0015736,-0.010047
12,0,0,0,0,0,0,0,231.8,254,0,0,0,0,0,0,0,231.8,766,0,0.000692788,0.000492706,-0.000170403,0.0168914,0.00529751,0.000181351,0.00098793,0.0010281,-0.0293481,0.000793304,0.000849609,0.0169604,-0.0215414,0.000753441,0.000848808,-0.00920776
12,1,0,0,0,0,0,0,231.8,254,0,0,0,0,0,0,0,231.8,766,0,0.000463906,0.0012175,-0.000475578,0.0158233,0.0048016,0.000295792,0.000415726,-0.000383339,0.121332,0.000640716,-0.000485535,0.0136035,-0.0215414,0.000219383,0.000276604,-0.00772003
12,2,0,0,0,0,0,0,231.8,254,0,0,0,0,0,0,0,231.8,766,0,0.000196877,0.000416412,0.000401802,0.0157852,0.00468716,-0.000810471,0.000186844,0.000379601,-0.0243508,-0.000923309,0.00096405,0.0126879,-0.0204733,-0.000925026,0.00123028,-0.00833038
12,3,0,0,0,0,0,0,231.8,254,0,0,0,0,0,0,0,231.8,766,0,0.000425759,0.00106491,0.000783272,0.0160141,0.00701412,0.000448379,0.000453873,-0.000421486,-0.0292336,0.00140366,0.000429993,0.0163882,-0.0204352,0.000906029,0.000238457,-0.0100851
12,4,0,0,0,0,0,0,231.8,254,0,0,0,0,0,0,0,231.8,766,0,0.0005402,0.00106491,0.000134773,0.0170822,0.00907406,0.000982437,0.000339432,0.000799217,0.125185,0.00071701,0.000391846,0.0135653,-0.0208167,0.00124935,0.00191692,-0.00878815
12,5,0,0,0,0,0,0,231.8,254,0,0,0,0,0,0,0,231.8,766,0,0.000425759,0.000797882,5.84793e-05,0.0160904,0.00659451,0.000486526,0.000644607,-0.000268898,-0.0188958,0.000488129,0.000315552,0.0115054,-0.0210074,0.000753441,0.000543633,-0.00916962
12,6,0,0,0,0,0,0,231.8,254,0,0,0,0,0,0,0,231.8,766,0,0.00115055,0.000263824,0.00112659,0.0157089,0.00869259,0.000410232,0.000453873,0.000875511,-0.0772225,0.000106659,0.000239258,0.0102847,-0.02116,0.000524559,0.000963249,-0.00924591
12,7,0,0,0,0,0,0,231.8,254,0,0,0,0,0,0,0,231.8,766,0,-0.000299034,0.00110306,0.000668831,0.0165481,0.00819668,0.000295792,0.000453873,0.000799217,-0.015043,0.000106659,0.00058258,0.00296047,-0.0207404,0.000906029,0.00161175,-0.00890259
12,8,0,0,0,0,0,0,231.8,254,0,0,0,0,0,0,0,231.8,766,0,0.00115055,-0.000613556,-1.78147e-05,0.0169677,0.00575527,0.000333939,0.00011055,-1.86916e-06,0.0460685,0.000106659,0.000201111,0.00845364,-0.0204352,0.000791588,0.000734367,-0.00764374
12,9,0,0,0,0,0,0,231.8,254,0,0,0,0,0,0,0,231.8,766,0,0.000769082,0.000378265,-9.41086e-05,0.0161285,0.00621304,0.000410232,0.000224991,0.00106625,0.0685371,0.000640716,0.000658874,0.0126498,-0.02116,0.000982323,0.00123028,-0.00909332
13,0,0,0,0,0,0,0,231.8,254,0,0,0,0,0,0,0,231.8,766,0,0.00015873,0.000149383,-0.000284843,0.01651,0.00518307,0.000105057,-3.89107e-06,-0.000535927,-0.0780999,0.00071701,0.000620727,0.0118487,-0.021427,0.00117306,0.000162163,-0.00806335
13,1,0,0,0,0,0,0,231.8,254,0,0,0,0,0,0,0,231.8,766,0,0.0005402,-0.00019394,0.000821419,0.0162429,0.00705227,0.000715408,0.000949783,0.00133327,0.0613654,0.000144806,1.03759e-05,0.0123065,-0.0210074,2.86484e-05,-0.000257454,-0.00901703
13,2,0,0,0,0,0,0,231.8,254,0,0,0,0,0,0,0,231.8,766,0,0.000845375,0.00133194,0.00112659,0.0160522,0.00590786,0.00147835,0.00060646,0.000684776,0.0647987,0.000373688,0.000925903,0.0160067,-0.0196722,0.0012112,0.00184063,-0.00962738
13,3,0,0,0,0,0,0,231.8,254,0,0,0,0,0,0,0,231.8,766,0,0.00107426,0.000797882,0.000706978,0.0166626,0.00110134,-0.00031456,0.00098793,-7.81631e-05,-0.07398,0.0002211,0.000697021,0.0137179,-0.0217703,-0.000162086,9.57493e-06,-0.00783447
13,4,0,0,0,0,0,0,231.8,254,0,0,0,0,0,0,0,231.8,766,0,0.000578347,0.00106491,0.000363655,0.0160904,0.00255093,0.00124947,0.000530167,-7.81631e-05,0.065142,0.00113663,-0.000180359,0.0139087,-0.0202063,-9.49856e-06,0.000810661,-0.00924591
13,5,0,0,0,0,0,0,231.8,254,0,0,0,0,0,0,0,231.8,766,0,0.000578347,0.000340118,-9.41086e-05,0.0159759,0.00174984,0.000295792,-0.000804977,-4.00161e-05,0.0791038,-0.000427399,0.000391846,0.0156253,-0.0205878,0.000677147,-0.000257454,-0.00909332
13,6,0,0,0,0,0,0,231.8,254,0,0,0,0,0,0,0,231.8,766,0,0.000502053,0.000263824,0.000897713,0.016777,0.00556454,0.000906143,0.000415726,-7.81631e-05,-0.0772607,-0.000236664,-0.000523682,0.0145572,-0.0211218,0.000524559,0.000276604,-0.00699524
13,7,0,0,0,0,0,0,231.8,254,0,0,0,0,0,0,0,231.8,766,0,0.00145573,0.000530853,0.00055439,0.0165481,0.00503048,0.00124947,0.00144569,0.00106625,0.0660194,0.000182953,-0.000485535,0.010361,-0.0203589,0.000715294,0.00180248,-0.0068808
13,8,0,0,0,0,0,0,231.8,254,0,0,0,0,0,0,0,231.8,766,0,0.00122685,0.00110306,0.000325508,0.0163955,0.00560268,0.00124947,0.00098793,0.000455895,0.0879539,0.0014418,0.000162964,0.00807217,-0.0200156,0.00178341,0.000886955,-0.00749115
13,9,0,0,0,0,0,0,231.8,254,0,0,0,0,0,0,0,231.8,766,0,0.000616494,0.000645294,0.00108845,0.0159378,0.00251278,0.000791702,0.000682754,0.000455895,-0.0899636,0.000259247,-0.000561829,0.014786,-0.0210455,0.000448265,0.000124016,-0.00886444
14,0,0,0,0,0,0,0,231.8,254,0,0,0,0,0,0,0,231.8,766,0,8.2436e-05,0.00110306,0.000668831,0.016777,0.00365719,0.000333939,0.00049202,0.000455895,-0.0326287,0.00106033,0.00134552,0.014786,-0.0202826,0.000867882,0.00111584,-0.0105048
14,1,0,0,0,0,0,0,231.8,254,0,0,0,0,0,0,0,231.8,766,0,0.000463906,-0.000270233,-5.59617e-05,0.0162048,0.0028561,0.000829849,0.000873489,-0.000650368,-0.00283592,-0.00111404,0.000124817,0.00940731,-0.0209311,0.000715294,0.00111584,-0.00829224
14,2,0,0,0,0,0,0,231.8,254,0,0,0,0,0,0,0,231.8,766,0,-0.00113827,0.000301971,5.84793e-05,0.0156707,-0.00149265,0.000982437,0.000759048,0.000608482,0.097071,-0.000961456,1.03759e-05,0.0136035,-0.0208167,0.000143089,0.00130657,-0.00970367
14,3,0,0,0,0,0,0,231.8,254,0,0,0,0,0,0,0,231.8,766,0,0.000807228,0.000378265,0.000821419,0.0158996,-0.00370518,0.000791702,-0.000156479,3.62778e-05,-0.02725,0.000755157,0.000124817,0.0147479,-0.0202063,0.00124935,0.000886955,-0.00749115
14,4,0,0,0,0,0,0,231.8,254,0,0,0,0,0,0,0,231.8,766,0,0.000883522,0.000607147,0.000859566,0.0165481,-0.000615272,0.00140205,0.00156013,0.000951805,-0.0266778,0.00186142,0.00107849,0.018143,-0.0195197,0.00124935,0.00119213,-0.00722412
14,5,0,0,0,0,0,0,231.8,254,0,0,0,0,0,0,0,231.8,766,0,0.00130314,0.000721588,0.00055439,0.0168914,-0.000424538,0.00105873,0.00060646,0.000150719,0.10657,0.000411835,-2.77711e-05,0.0155871,-0.0209692,0.000486412,0.000429192,-0.00791077
14,6,0,0,0,0,0,0,231.8,254,0,0,0,0,0,0,0,231.8,766,0,0.000387612,0.000149383,0.000897713,0.0163574,-0.00305668,0.000143204,0.000949783,0.000379601,-0.0317895,-0.000389252,-2.77711e-05,0.0179141,-0.0201682,0.00136379,0.000238457,-0.00890259
14,7,0,0,0,0,0,0,231.8,254,0,0,0,0,0,0,0,231.8,766,0,6.14207e-06,-0.000422821,0.000211067,0.014183,-0.00172153,0.000600967,-0.000156479,3.62778e-05,-0.0258385,0.000678863,-0.00136292,0.0193637,-0.0216177,-0.000162086,0.00069622,-0.00905518
14,8,0,0,0,0,0,0,231.8,254,0,0,0,0,0,0,0,231.8,766,0,0.000807228,0.000340118,0.000439949,0.01548,-4.92088e-06,0.000257645,0.00110237,0.00026516,0.119997,0.000984039,0.000315552,0.0221103,-0.020397,0.00105862,-0.00018116,-0.00726227
14,9,0,0,0,0,0,0,231.8,254,0,0,0,0,0,0,0,231.8,766,0,0.00015873,0.000301971,0.000706978,0.0160522,0.00152096,0.000715408,0.00129311,0.000379601,-0.023626,0.000144806,0.000544433,0.0249331,-0.0206259,0.000410118,0.000619926,-0.00775818
15,0,0,0,0,0,0,0,231.8,254,0,0,0,0,0,0,0,231.8,766,0,8.2436e-05,0.000111236,0.000592537,0.0158233,0.000643578,0.000257645,0.00060646,0.000494041,-0.0288903,0.000144806,-0.000409241,0.0217288,-0.0218085,0.000562706,0.0010014,-0.00791077
15,1,0,0,0,0,0,0,231.8,254,0,0,0,0,0,0,0,231.8,766,0,0.000349465,-0.000727997,0.000706978,0.0161666,0.00342831,0.000524673,0.000453873,7.44248e-05,0.12427,-0.000351105,0.000544433,0.0190585,-0.0205115,0.000410118,0.000543633,-0.00867371
15,2,0,0,0,0,0,0,231.8,254,0,0,0,0,0,0,0,231.8,766,0,-0.000794944,-0.000422821,-5.59617e-05,0.0150604,0.0054501,-0.000619736,0.000453873,-0.000307045,-0.0180947,0.000449982,1.03759e-05,0.0219195,-0.0213507,-0.000886879,-0.000371895,-0.00783447
15,3,0,0,0,0,0,0,231.8,254,0,0,0,0,0,0,0,231.8,766,0,0.000845375,-0.000537262,0.00139362,0.0167389,0.00632748,0.000791702,0.00144569,0.000646629,-0.07604,0.000831451,0.000391846,0.016083,-0.0208929,0.000333824,-0.000219307,-0.00882629
15,4,0,0,0,0,0,0,231.8,254,0,0,0,0,0,0,0,231.8,766,0,0.000273171,0.000340118,0.000592537,0.0159759,0.00556454,0.000486526,-0.000156479,0.000227013,-0.0140511,0.000335541,8.66698e-05,0.0104754,-0.0207022,0.0012875,-0.000600777,-0.00848297
15,5,0,0,0,0,0,0,231.8,254,0,0,0,0,0,0,0,231.8,766,0,0.000692788,0.000797882,0.000287361,0.0158996,0.00670895,0.00094429,0.000415726,0.000913658,0.0458778,0.000297394,0.000201111,0.0110095,-0.0200156,0.000562706,0.000925102,-0.00791077
15,6,0,0,0,0,0,0,231.8,254,0,0,0,0,0,0,0,231.8,766,0,-0.000794944,0.0012175,0.00166065,0.0158996,0.0022839,0.00147835,0.00114052,-7.81631e-05,0.0675452,0.00113663,0.0016507,0.0108187,-0.0205115,0.000715294,0.000429192,-0.00924591
15,7,0,0,0,0,0,0,231.8,254,0,0,0,0,0,0,0,231.8,766,0,-3.20049e-05,0.000607147,-1.78147e-05,0.0156326,0.00476345,0.000105057,0.000873489,-4.00161e-05,-0.077871,-0.000694428,-0.000752564,0.0131839,-0.0203589,0.000143089,-0.000143013,-0.00875
15,8,0,0,0,0,0,0,231.8,254,0,0,0,0,0,0,0,231.8,766,0,0.00103611,0.000225677,0.000325508,0.0160522,0.00277981,-9.38424e-06,0.000644607,0.000608482,0.0606788,0.000526275,0.000277405,0.0123065,-0.0220755,0.000867882,-6.6719e-05,-0.00882629
15,9,0,0,0,0,0,0,231.8,254,0,0,0,0,0,0,0,231.8,766,0,0.000578347,0.00018753,0.00055439,0.0169296,0.00224575,0.00121132,0.000873489,0.000494041,0.0640739,0.000945892,0.00149811,0.010628,-0.0199774,0.0012112,0.00126843,-0.00649933
16,0,0,0,0,0,0,0,231.8,254,0,0,0,0,0,0,0,231.8,766,0,0.000502053,0.00095047,0.00116474,0.0162429,0.000948753,0.00056282,0.00148384,0.000837364,-0.0726449,0.000335541,0.000506287,0.0103228,-0.0210837,0.0012112,0.00115398,-0.00844482
16,1,0,0,0,0,0,0,231.8,254,0,0,0,0,0,0,0,231.8,766,0,-0.000260887,0.000301971,-0.000666313,0.0150222,-0.00416294,0.000143204,-4.2038e-05,3.62778e-05,0.0646079,0.000335541,-0.000828858,0.0089114,-0.0212744,0.000486412,8.58689e-05,-0.00913147
16,2,0,0,0,0,0,0,231.8,254,0,0,0,0,0,0,0,231.8,766,0,-0.000299034,0.000988617,0.00158436,0.0158233,0.000300255,0.000600967,0.000568314,3.62778e-05,0.0776923,0.000945892,-0.0015918,0.0126498,-0.0209311,0.00117306,0.000963249,-0.00855927
16,3,0,0,0,0,0,0,231.8,254,0,0,0,0,0,0,0,231.8,766,0,0.00130314,0.000378265,9.66262e-05,0.0166244,0.00426754,0.00094429,3.42559e-05,0.00026516,-0.0756585,0.000106659,0.000239258,0.0179522,-0.0220374,0.000639,0.00142101,-0.00981812
16,4,0,0,0,0,0,0,231.8,254,0,0,0,0,0,0,0,231.8,766,0,-7.01519e-05,0.000263824,-9.41086e-05,0.0149459,0.00316128,0.000753555,0.000339432,-0.000345192,0.0653709,0.000640716,-2.77711e-05,0.0128787,-0.0202826,0.000829735,-0.000104866,-0.00794891
16,5,0,0,0,0,0,0,231.8,254,0,0,0,0,0,0,0,231.8,766,0,6.14207e-06,0.000645294,0.00139362,0.0168914,0.0048016,0.00136391,0.00156013,0.000684776,0.0868095,-0.000579987,0.000239258,0.00944546,-0.0205496,0.00117306,0.00069622,-0.00901703
16,6,0,0,0,0,0,0,231.8,254,0,0,0,0,0,0,0,231.8,766,0,0.000387612,0.000874176,0.000630684,0.0166244,0.00556454,0.000829849,0.00182716,0.000112572,-0.0887811,0.000640716,-0.000447388,0.00997951,-0.0210455,0.00140194,0.00130657,-0.00760559
16,7,0,0,0,0,0,0,231.8,254,0,0,0,0,0,0,0,231.8,766,0,8.2436e-05,-0.000499115,0.000249214,0.0155182,0.00808224,0.000906143,0.00049202,0.000799217,-0.0320184,0.000488129,0.00046814,0.0111621,-0.0205115,0.00102047,0.000467339,-0.00703339
16,8,0,0,0,0,0,0,231.8,254,0,0,0,0,0,0,0,231.8,766,0,0.000273171,0.000683441,9.66262e-05,0.0168914,0.00773891,0.00056282,0.000949783,0.00114254,-0.00359886,0.00140366,0.00058258,0.0140231,-0.0208167,0.000562706,0.000467339,-0.00848297
16,9,0,0,0,0,0,0,231.8,254,0,0,0,0,0,0,0,231.8,766,0,0.000120583,-3.20468e-06,-0.00020855,0.0169677,0.00632748,0.000829849,0.000720901,-0.000230751,0.0963844,-0.000656281,-0.000599976,0.0153201,-0.0207404,0.000906029,0.000963249,-0.00833038
17,0,0,0,0,0,0,0,231.8,254,0,0,0,0,0,0,0,231.8,766,0,0.000235024,0.000836029,0.000401802,0.0158233,0.00930294,0.000677261,-4.2038e-05,0.000951805,-0.0274789,0.00125107,0.00058258,0.0168078,-0.0209692,0.000600853,0.000886955,-0.00951294
17,1,0,0,0,0,0,0,231.8,254,0,0,0,0,0,0,0,231.8,766,0,0.000692788,0.00125565,0.000668831,0.0174255,0.00903591,0.000257645,0.00098793,0.00137142,-0.0280511,0.00109848,0.00123108,0.0183337,-0.0200919,0.000791588,0.00115398,-0.00875
17,2,0,0,0,0,0,0,231.8,254,0,0,0,0,0,0,0,231.8,766,0,-0.000527916,0.00125565,0.00017292,0.0151748,0.00682339,0.000791702,0.000263138,-0.000612221,0.10409,0.000564422,-0.000981445,0.0142901,-0.0212744,0.000143089,0.000734367,-0.00928406
17,3,0,0,0,0,0,0,231.8,254,0,0,0,0,0,0,0,231.8,766,0,0.000883522,0.00102676,0.000401802,0.0164718,0.0066708,0.000600967,0.000682754,0.000646629,-0.02519,0.000449982,0.000658874,0.0161212,-0.0207404,0.000524559,0.00123028,-0.00848297
17,4,0,0,0,0,0,0,231.8,254,0,0,0,0,0,0,0,231.8,766,0,0.000502053,0.00018753,0.000974007,0.0169677,0.00621304,0.000715408,0.00178902,0.000837364,-0.0277459,0.00147995,0.00111664,0.0164264,-0.0223044,0.00105862,0.00126843,-0.00756744
17,5,0,0,0,0,0,0,231.8,254,0,0,0,0,0,0,0,231.8,766,0,0.000769082,0.00018753,0.00135548,0.0161285,0.0079678,0.00124947,3.42559e-05,-0.00011631,0.120455,0.00113663,1.03759e-05,0.010895,-0.0218085,0.000295677,0.000848808,-0.00791077
17,6,0,0,0,0,0,0,231.8,254,0,0,0,0,0,0,0,231.8,766,0,-0.000375328,-0.000346527,5.84793e-05,0.0167389,0.00663265,0.000295792,-0.000156479,-7.81631e-05,-0.0233208,0.000793304,0.000315552,0.00738552,-0.021427,0.00140194,-0.000600777,-0.00958923
17,7,0,0,0,0,0,0,231.8,254,0,0,0,0,0,0,0,231.8,766,0,0.000769082,0.000416412,0.00093586,0.0165481,0.00316128,0.00094429,-0.000385361,0.000608482,-0.0280511,0.0015181,-0.000828858,0.00597408,-0.0208548,0.000867882,-0.000219307,-0.00646118
17,8,0,0,0,0,0,0,231.8,254,0,0,0,0,0,0,0,231.8,766,0,0.000463906,-0.000117646,-1.78147e-05,0.0163574,0.00464901,0.000486526,0.000797195,-0.000345192,0.122134,-0.000694428,-0.0002948,0.0101702,-0.0217322,0.000944176,0.00111584,-0.00852112
17,9,0,0,0,0,0,0,231.8,254,0,0,0,0,0,0,0,231.8,766,0,0.00115055,0.000569,0.000859566,0.0161285,0.00678524,0.000829849,0.000873489,0.000532188,-0.0167596,0.00117477,0.00046814,0.0149386,-0.0208929,0.00132565,0.000772514,-0.00791077
18,0,0,0,0,0,0,0,231.8,254,0,0,0,0,0,0,0,231.8,766,0,0.000273171,0.000607147,0.000897713,0.0163192,0.00735744,0.000639114,0.000377579,0.000799217,-0.0744759,0.00140366,8.66698e-05,0.0162356,-0.0216559,0.000906029,0.0010014,-0.00897888
18,1,0,0,0,0,0,0,231.8,254,0,0,0,0,0,0,0,231.8,766,0,-0.000451622,0.000111236,0.00112659,0.01651,0.00571712,0.00109688,0.00133125,0.000379601,-0.0151192,0.00106033,0.000429993,0.0144046,-0.0208929,0.00136379,0.00119213,-0.00806335
18,2,0,0,0,0,0,0,231.8,254,0,0,0,0,0,0,0,231.8,766,0,0.000311318,0.000225677,0.000439949,0.0163574,0.00316128,0.00124947,0.00049202,7.44248e-05,0.04542,0.000640716,8.66698e-05,0.0146334,-0.0215033,0.00105862,0.000848808,-0.00829224
18,3,0,0,0,0,0,0,231.8,254,0,0,0,0,0,0,0,231.8,766,0,0.0005402,0.0011412,0.000592537,0.0158615,0.00232204,0.000867996,0.00121681,0.00121883,0.0683082,0.00147995,0.00111664,0.0170749,-0.0207022,0.00174526,0.00103954,-0.00909332
18,4,0,0,0,0,0,0,231.8,254,0,0,0,0,0,0,0,231.8,766,0,-0.000871238,-0.000346527,0.000974007,0.0162811,0.00453457,0.000372085,7.24029e-05,0.000608482,-0.0756203,0.000869598,-0.00113403,0.0166552,-0.0207404,0.00151638,0.000848808,-0.00749115
18,5,0,0,0,0,0,0,231.8,254,0,0,0,0,0,0,0,231.8,766,0,8.2436e-05,0.000759735,-9.41086e-05,0.0158233,0.0022839,0.000372085,3.42559e-05,0.00106625,0.0601829,0.000640716,0.000277405,0.0170749,-0.021427,0.000639,0.00107769,-0.00821594
18,6,0,0,0,0,0,0,231.8,254,0,0,0,0,0,0,0,231.8,766,0,0.00157017,0.0012175,0.000249214,0.0169296,-0.000157509,0.000600967,0.000911636,0.000303307,0.0636161,0.00109848,0.000544433,0.0236361,-0.0194434,0.00166897,0.000925102,-0.00825409
18,7,0,0,0,0,0,0,231.8,254,0,0,0,0,0,0,0,231.8,766,0,-0.000756797,-3.20468e-06,0.000706978,0.0157852,0.00171169,0.000906143,-0.000118332,0.000455895,-0.0715386,0.00132736,0.000391846,0.0187915,-0.0205496,0.000143089,0.000543633,-0.00913147
18,8,0,0,0,0,0,0,231.8,254,0,0,0,0,0,0,0,231.8,766,0,0.000235024,-0.000155793,0.000287361,0.0161666,0.00171169,0.000257645,-0.00027092,0.000608482,0.0646461,0.000106659,0.000735168,0.00307491,-0.0213507,0.000867882,0.000314751,-0.00897888
18,9,0,0,0,0,0,0,231.8,254,0,0,0,0,0,0,0,231.8,766,0,0.000387612,7.30893e-05,0.000974007,0.0173492,0.00476345,0.000829849,0.00110237,0.00121883,0.0779212,0.00109848,0.00104034,0.0110858,-0.0218085,0.00140194,0.00134472,-0.00760559
19,0,0,0,0,0,0,0,231.8,254,0,0,0,0,0,0,0,231.8,766,0,0.000883522,0.000569,-0.000246697,0.0162811,0.00651821,0.000906143,0.00049202,0.000951805,-0.0743996,0.000526275,-0.0002948,0.0195544,-0.0211981,0.000639,-0.000295601,-0.00920776
19,1,0,0,0,0,0,0,231.8,254,0,0,0,0,0,0,0,231.8,766,0,8.2436e-05,-0.000232087,0.000134773,0.0155182,0.00483974,-0.00069603,0.000835342,0.000112572,0.0646842,0.000640716,-0.0002948,0.0198596,-0.021694,0.000600853,0.000162163,-0.00829224
19,2,0,0,0,0,0,0,231.8,254,0,0,0,0,0,0,0,231.8,766,0,0.000273171,0.0011412,0.000287361,0.0162048,0.00678524,0.00109688,0.000186844,0.000532188,0.0873054,0.000831451,0.00111664,0.0222628,-0.0208167,0.000677147,0.00206951,-0.0081778
19,3,0,0,0,0,0,0,231.8,254,0,0,0,0,0,0,0,231.8,766,0,0.00126499,0.000988617,0.000859566,0.015747,0.00922665,0.00132576,0.00129311,0.00026516,-0.0877892,0.00163254,0.0010022,0.0229113,-0.0199011,0.00163082,0.00069622,-0.00791077
19,4,0,0,0,0,0,0,231.8,254,0,0,0,0,0,0,0,231.8,766,0,0.00141758,0.000607147,-1.78147e-05,0.0151367,0.00854,-9.38424e-06,0.000339432,0.000150719,-0.0320565,3.03648e-05,8.66698e-05,0.0156253,-0.0212744,-0.000162086,0.00107769,-0.00821594
19,5,0,0,0,0,0,0,231.8,254,0,0,0,0,0,0,0,231.8,766,0,0.000387612,0.000378265,-0.00020855,0.0163955,0.00998959,0.000829849,0.000911636,0.000951805,-0.00115746,-0.000236664,0.000849609,0.00933102,-0.0218466,0.000639,0.00233654,-0.0081015
19,6,0,0,0,0,0,0,231.8,254,0,0,0,0,0,0,0,231.8,766,0,0.00153202,0.000607147,0.000363655,0.017044,0.00987514,0.000600967,0.00098793,0.00110439,0.0958503,0.000945892,0.00119293,0.00528744,-0.0209311,0.00224117,0.000391045,-0.00905518
19,7,0,0,0,0,0,0,231.8,254,0,0,0,0,0,0,0,231.8,766,0,-7.01519e-05,0.00095047,0.000706978,0.0163955,0.00632748,0.000600967,-0.000118332,0.000608482,-0.0264489,0.000755157,8.66698e-05,0.00620296,-0.02013,0.000524559,0.00069622,-0.0081778
19,8,0,0,0,0,0,0,231.8,254,0,0,0,0,0,0,0,231.8,766,0,0.000997963,0.000836029,0.000859566,0.0169296,0.0073193,0.00056282,0.000759048,0.00121883,-0.0263726,0.000793304,0.000277405,0.0108187,-0.0203589,0.000867882,0.000619926,-0.00821594
19,9,0,0,0,0,0,0,231.8,254,0,0,0,0,0,0,0,231.8,766,0,0.000387612,0.000912323,0.00181324,0.0168533,0.0060223,0.00124947,0.00156013,0.00026516,0.10451,0.00174698,0.000315552,0.0196688,-0.020397,0.000867882,0.000963249,-0.00829224
20,0,0,0,0,0,0,0,231.8,254,0,0,0,0,0,0,0,231.8,766,0,0.000273171,0.000378265,-0.00032299,0.0155563,0.00461086,0.000181351,0.000148697,0.00026516,-0.0263726,-0.000961456,0.000697021,0.0226443,-0.0204352,0.000753441,0.00130657,-0.00936035
20,1,0,0,0,0,0,0,231.8,254,0,0,0,0,0,0,0,231.8,766,0,0.000502053,-0.000804291,-0.000780754,0.0146026,0.00148281,-0.000390854,0.000949783,0.000532188,-0.0270974,0.000297394,0.000429993,0.0205844,-0.0220374,0.000753441,-2.8572e-05,-0.00943665
20,2,0,0,0,0,0,0,231.8,254,0,0,0,0,0,0,0,231.8,766,0,8.2436e-05,0.000645294,0.00108845,0.017044,0.00144466,0.00102058,0.000949783,0.00121883,0.119997,0.00140366,0.000353699,0.0214236,-0.0207404,0.00102047,0.0010014,-0.00867371
20,3,0,0,0,0,0,0,231.8,254,0,0,0,0,0,0,0,231.8,766,0,0.000692788,0.000378265,0.000249214,0.0167389,0.00297054,0.000715408,0.00175087,0.000341454,-0.0227105,0.000106659,0.000429993,0.0209277,-0.0218085,0.00109676,-0.000448189,-0.00958923
20,4,0,0,0,0,0,0,231.8,254,0,0,0,0,0,0,0,231.8,766,0,0.000692788,-0.000232087,9.66262e-05,0.0159759,0.0029324,0.000867996,-4.2038e-05,0.00121883,-0.02828,0.00121292,1.03759e-05,0.0188678,-0.0202444,0.00102047,0.00020031,-0.00890259
20,5,0,0,0,0,0,0,231.8,254,0,0,0,0,0,0,0,231.8,766,0,0.000883522,0.000912323,-0.00020855,0.0156326,0.0041531,0.000486526,0.000339432,0.00106625,0.123354,-0.000618134,-0.000409241,0.0112002,-0.0215414,0.000524559,0.00138287,-0.00920776
20,6,0,0,0,0,0,0,231.8,254,0,0,0,0,0,0,0,231.8,766,0,0.00130314,0.000301971,0.00162251,0.01651,0.00594601,0.000715408,0.00159828,0.000837364,-0.016607,0.000602569,0.000315552,0.00921657,-0.0202444,0.00170712,0.00134472,-0.00695709
20,7,0,0,0,0,0,0,231.8,254,0,0,0,0,0,0,0,231.8,766,0,0.00130314,0.000759735,0.000706978,0.0153656,0.00224575,0.000639114,7.24029e-05,0.000799217,-0.073713,0.000945892,0.000697021,0.018143,-0.0202826,-0.000505409,0.000467339,-0.00783447
20,8,0,0,0,0,0,0,231.8,254,0,0,0,0,0,0,0,231.8,766,0,0.000616494,3.49423e-05,-9.41086e-05,0.0171203,0.000529137,0.000219498,0.00121681,0.000608482,-0.0143563,-0.000579987,0.0010022,0.0203936,-0.021427,0.000982323,0.00103954,-0.00890259
20,9,0,0,0,0,0,0,231.8,254,0,0,0,0,0,0,0,231.8,766,0,0.000959816,0.000263824,0.0010503,0.0153656,0.000758019,0.00128761,0.00106422,0.000532188,0.0457252,0.000678863,0.00138367,0.0169604,-0.0202444,0.000600853,0.00058178,-0.00913147
21,0,0,0,0,0,0,0,231.8,254,0,0,0,0,0,0,0,231.8,766,0,0.000502053,0.000912323,0.000211067,0.0155182,0.00331387,-0.000276413,-3.89107e-06,0.000379601,0.0681556,6.85118e-05,0.000391846,0.0175326,-0.0207404,0.000486412,0.000848808,-0.00825409
21,1,0,0,0,0,0,0,231.8,254,0,0,0,0,0,0,0,231.8,766,0,0.000921669,0.000683441,0.0010503,0.0162048,0.00243649,0.000753555,0.00148384,7.44248e-05,-0.0753533,0.00109848,0.000162964,0.0180285,-0.0196341,0.00117306,0.00130657,-0.0093985
21,2,0,0,0,0,0,0,231.8,254,0,0,0,0,0,0,0,231.8,766,0,0.000425759,-0.000422821,0.000363655,0.0154419,0.000300255,0.000219498,0.000415726,0.000150719,0.0591529,-0.00168625,-0.000752564,0.0132602,-0.0209692,-4.76455e-05,-6.6719e-05,-0.00836853
21,3,0,0,0,0,0,0,231.8,254,0,0,0,0,0,0,0,231.8,766,0,0.00149387,0.000874176,0.00101215,0.0159378,0.00133022,0.000257645,0.00125496,0.000188866,0.0640739,0.000907745,0.000620727,0.00685146,-0.0204352,0.00124935,0.00130657,-0.00833038
21,4,0,0,0,0,0,0,231.8,254,0,0,0,0,0,0,0,231.8,766,0,0.00137943,0.000301971,0.00108845,0.0160141,-0.000653419,0.00124947,0.00060646,0.00026516,-0.0710809,0.00113663,0.000620727,0.000442772,-0.0214651,0.000562706,0.00069622,-0.00829224
21,5,0,0,0,0,0,0,231.8,254,0,0,0,0,0,0,0,231.8,766,0,4.4289e-05,0.000645294,5.84793e-05,0.0153656,0.0029324,0.000181351,0.000415726,-0.000764809,0.0641883,-0.000579987,1.03759e-05,0.00460079,-0.0207785,0.000181236,8.58689e-05,-0.00897888
21,6,0,0,0,0,0,0,231.8,254,0,0,0,0,0,0,0,231.8,766,0,0.000692788,0.000378265,0.00127918,0.0169296,0.00312313,0.000639114,0.00163643,0.00114254,0.0780738,0.000411835,0.000925903,0.00959804,-0.0209692,0.000295677,0.00115398,-0.00871185
21,7,0,0,0,0,0,0,231.8,254,0,0,0,0,0,0,0,231.8,766,0,0.000807228,0.000378265,0.000249214,0.0158996,0.00339016,0.000410232,0.00098793,-0.000192604,-0.0736749,0.00102219,0.000315552,0.00791958,-0.0205878,0.000600853,0.000925102,-0.00859741
21,8,0,0,0,0,0,0,231.8,254,0,0,0,0,0,0,0,231.8,766,0,0.000578347,0.000301971,0.000478096,0.0155182,0.00541195,-0.000276413,0.000568314,-4.00161e-05,0.0643409,-0.000274811,0.000391846,0.0115435,-0.0225714,0.00025753,0.000619926,-0.00813965
21,9,0,0,0,0,0,0,231.8,254,0,0,0,0,0,0,0,231.8,766,0,0.00130314,0.000416412,0.000821419,0.0161285,0.00762447,0.000448379,0.00102608,0.00076107,0.0860084,0.00113663,0.00187958,0.0165789,-0.0210455,0.000639,0.00069622,-0.0081015
22,0,0,0,0,0,0,0,231.8,254,0,0,0,0,0,0,0,231.8,766,0,0.000235024,0.000263824,-0.00032299,0.016777,0.00651821,0.000791702,0.000568314,0.000303307,-0.08695,0.00117477,-2.77711e-05,0.0163501,-0.0195197,0.000600853,0.000124016,-0.00852112
22,1,0,0,0,0,0,0,231.8,254,0,0,0,0,0,0,0,231.8,766,0,0.000807228,-0.000155793,0.000516243,0.0157089,0.0040768,0.000257645,0.000644607,-1.86916e-06,-0.0306451,0.00106033,0.000697021,0.0144809,-0.0199774,0.00147823,0.00176434,-0.0093985
22,2,0,0,0,0,0,0,231.8,254,0,0,0,0,0,0,0,231.8,766,0,0.0005402,0.000721588,-0.000361137,0.0157089,0.00396236,0.000486526,0.000873489,0.000303307,-0.00256889,0.000106659,-0.000447388,0.0159686,-0.0202826,-4.76455e-05,0.000276604,-0.00844482
22,3,0,0,0,0,0,0,231.8,254,0,0,0,0,0,0,0,231.8,766,0,0.000578347,-0.000460968,-0.000284843,0.0142974,0.00152096,0.000333939,0.00106422,0.000532188,0.0949348,0.000259247,0.000697021,0.0202792,-0.0219229,0.000867882,0.00130657,-0.00924591
22,4,0,0,0,0,0,0,231.8,254,0,0,0,0,0,0,0,231.8,766,0,0.000997963,0.000340118,0.000745125,0.015747,0.000338402,0.000486526,-4.2038e-05,3.62778e-05,-0.0264108,0.0002211,-0.0002948,0.0181811,-0.0205878,0.000295677,0.00058178,-0.0081778
22,5,0,0,0,0,0,0,231.8,254,0,0,0,0,0,0,0,231.8,766,0,0.00168461,0.00110306,0.00139362,0.0163955,-0.00111118,0.000639114,0.00121681,0.000913658,-0.0280511,0.00113663,0.00111664,0.0103228,-0.0192526,0.000791588,0.000925102,-0.00821594
22,6,0,0,0,0,0,0,231.8,254,0,0,0,0,0,0,0,231.8,766,0,0.000807228,-4.13517e-05,-0.000170403,0.0157089,-4.30678e-05,-4.75312e-05,0.00117867,-0.000192604,0.102259,0.000335541,-0.0002948,0.00818661,-0.0215796,6.67954e-05,0.000810661,-0.00707153
22,7,0,0,0,0,0,0,231.8,254,0,0,0,0,0,0,0,231.8,766,0,0.000425759,0.00018753,0.000249214,0.0153656,0.00270351,0.000219498,0.0013694,0.000341454,-0.0256478,0.000488129,-0.000561829,0.0121157,-0.021427,0.000906029,-0.000257454,-0.00699524
22,8,0,0,0,0,0,0,231.8,254,0,0,0,0,0,0,0,231.8,766,0,0.00115055,0.000759735,0.000821419,0.0155944,0.00365719,0.000295792,0.00106422,0.00026516,-0.0261437,0.00189957,0.000735168,0.0131076,-0.0205878,0.00159267,0.00123028,-0.00844482
22,9,0,0,0,0,0,0,231.8,254,0,0,0,0,0,0,0,231.8,766,0,0.00130314,0.000645294,0.00127918,0.0165481,0.00411495,0.000677261,0.000568314,0.000951805,0.119578,0.00071701,0.000658874,0.0120776,-0.0219611,2.86484e-05,0.00180248,-0.00676636
23,0,0,0,0,0,0,0,231.8,254,0,0,0,0,0,0,0,231.8,766,0,0.0005402,0.00144638,0.00166065,0.0163955,0.00327572,0.00136391,0.000644607,0.000341454,-0.0212991,0.000411835,0.000735168,0.0197451,-0.0206641,0.000677147,0.000886955,-0.00760559
23,1,0,0,0,0,0,0,231.8,254,0,0,0,0,0,0,0,231.8,766,0,0.000502053,0.000263824,0.000821419,0.0163955,0.00224575,0.000791702,0.00117867,-0.000764809,-0.02828,0.00128921,4.85228e-05,0.019707,-0.0210837,0.000753441,0.00149731,-0.00966553
23,2,0,0,0,0,0,0,231.8,254,0,0,0,0,0,0,0,231.8,766,0,0.000387612,3.49423e-05,-0.00032299,0.0155944,0.00239834,0.000105057,0.000148697,-0.000574074,0.122172,-0.000312958,4.85228e-05,0.0158541,-0.0205878,-0.000162086,0.00123028,-0.00916962
23,3,0,0,0,0,0,0,231.8,254,0,0,0,0,0,0,0,231.8,766,0,0.000845375,0.000492706,0.000401802,0.0157089,0.00239834,-9.38424e-06,0.00060646,0.000532188,-0.0166451,-0.000198517,0.000201111,0.016846,-0.0210074,0.000906029,0.00138287,-0.00905518
23,4,0,0,0,0,0,0,231.8,254,0,0,0,0,0,0,0,231.8,766,0,0.000692788,0.000492706,0.00108845,0.0162811,0.000262108,0.000410232,0.00011055,-0.00011631,-0.0741708,0.00102219,-0.000104065,0.0158923,-0.0207404,0.000791588,-0.000410042,-0.00833038
23,5,0,0,0,0,0,0,231.8,254,0,0,0,0,0,0,0,231.8,766,0,0.000845375,0.000797882,0.000363655,0.0162048,0.00308498,0.000600967,0.000263138,7.44248e-05,-0.0157296,0.000831451,0.00142181,0.01841,-0.0197104,0.000982323,0.00058178,-0.00802521
23,6,0,0,0,0,0,0,231.8,254,0,0,0,0,0,0,0,231.8,766,0,6.14207e-06,0.000683441,0.000668831,0.01651,0.00384792,0.000410232,0.000263138,-0.00049778,0.0178779,0.000869598,8.66698e-05,0.0169986,-0.0206641,0.000944176,0.00161175,-0.00890259
23,7,0,0,0,0,0,0,231.8,254,0,0,0,0,0,0,0,231.8,766,0,0.000730935,0.000301971,-0.000170403,0.0150985,-0.000348244,0.000829849,0.00110237,-0.00049778,0.0401557,-0.000465546,-0.000104065,0.01841,-0.0210455,0.00117306,0.00115398,-0.00676636
23,8,0,0,0,0,0,0,231.8,254,0,0,0,0,0,0,0,231.8,766,0,0.00164646,0.00110306,0.000974007,0.0155182,0.0035046,0.00113502,0.00049202,0.000951805,-0.0562798,0.000678863,0.000620727,0.0161975,-0.0208929,0.0012112,0.00164989,-0.00875
23,9,0,0,0,0,0,0,231.8,254,0,0,0,0,0,0,0,231.8,766,0,0.000883522,0.00102676,0.00188953,0.0169296,0.00564083,0.00140205,0.00117867,0.00076107,0.0363792,0.00125107,0.00126923,0.012955,-0.0202826,0.00117306,0.000467339,-0.00905518
24,0,0,0,0,0,0,0,231.8,254,0,0,0,0,0,0,0,231.8,766,0,0.000463906,0.000340118,9.66262e-05,0.0157089,0.00487789,-8.56782e-05,7.24029e-05,-0.000268898,0.0339378,0.00125107,0.000201111,0.0115054,-0.0207404,0.000448265,0.0010014,-0.00813965
24,1,0,0,0,0,0,0,231.8,254,0,0,0,0,0,0,0,231.8,766,0,0.000425759,-0.000613556,0.000401802,0.0153656,0.00621304,0.000257645,-3.89107e-06,-0.000230751,-0.047506,-0.000236664,0.000811462,0.00986507,-0.0212363,0.00025753,0.000886955,-0.00878815
24,2,0,0,0,0,0,0,231.8,254,0,0,0,0,0,0,0,231.8,766,0,6.14207e-06,0.000454559,0.00162251,0.0163192,0.00712856,0.00159279,0.000873489,0.000341454,0.04439,0.000488129,0.00104034,0.0117724,-0.0195578,0.00182156,0.00130657,-0.00768188
24,3,0,0,0,0,0,0,231.8,254,0,0,0,0,0,0,0,231.8,766,0,0.000578347,0.00102676,0.00055439,0.0158996,0.00911221,0.000906143,0.000911636,0.000646629,0.054766,0.000984039,0.000124817,0.0151294,-0.0202063,0.00147823,0.00103954,-0.00867371
24,4,0,0,0,0,0,0,231.8,254,0,0,0,0,0,0,0,231.8,766,0,0.000845375,0.000301971,0.000287361,0.0154037,0.00857815,0.000867996,0.000911636,0.00118069,-0.0479256,0.0014418,0.00149811,0.018143,-0.0207022,0.000562706,0.000543633,-0.00890259
24,5,0,0,0,0,0,0,231.8,254,0,0,0,0,0,0,0,231.8,766,0,0.00103611,0.00129379,0.00124104,0.0168533,0.00995144,0.00056282,0.00114052,0.000227013,0.0472511,0.00128921,0.0010022,0.0211184,-0.0204733,0.000944176,0.000810661,-0.00848297
24,6,0,0,0,0,0,0,231.8,254,0,0,0,0,0,0,0,231.8,766,0,0.00107426,-0.000422821,-9.41086e-05,0.0155182,0.00644192,-0.00123009,-0.000537949,0.000341454,0.0645316,0.000259247,0.00134552,0.0159686,-0.0215033,0.000410118,-0.00056263,-0.00840668
24,7,0,0,0,0,0,0,231.8,254,0,0,0,0,0,0,0,231.8,766,0,0.000311318,0.000874176,0.0010503,0.0163192,0.00445827,0.000639114,0.00121681,7.44248e-05,-0.055021,0.000449982,0.000735168,0.0154727,-0.0206641,0.000333824,0.000963249,-0.00775818
24,8,0,0,0,0,0,0,231.8,254,0,0,0,0,0,0,0,231.8,766,0,0.000616494,0.000454559,0.00146992,0.0166244,0.0040768,0.000982437,0.000377579,-0.000268898,-0.0165307,0.000526275,0.000201111,0.0154727,-0.0206259,0.000600853,0.00180248,-0.00844482
24,9,0,0,0,0,0,0,231.8,254,0,0,0,0,0,0,0,231.8,766,0,0.000845375,0.000874176,0.000516243,0.0163955,0.00419125,0.000753555,0.000377579,0.000608482,0.000406571,0.000297394,0.00107849,0.0110858,-0.02013,0.000982323,0.00103954,-0.00829224
25,0,0,0,0,0,0,0,231.8,254,0,0,0,0,0,0,0,231.8,766,0,0.000502053,0.00125565,0.00124104,0.0163955,0.00419125,0.000867996,0.00060646,0.000150719,0.0625098,0.00125107,0.000925903,0.0113147,-0.0210074,0.000639,0.000772514,-0.00741486
25,1,0,0,0,0,0,0,231.8,254,0,0,0,0,0,0,0,231.8,766,0,0.00130314,3.49423e-05,0.000439949,0.0159759,0.0040768,0.00109688,-0.000690537,0.000150719,-0.0118386,0.000259247,0.000773315,0.00837734,-0.0202826,-0.000467262,0.00123028,-0.00920776
25,2,0,0,0,0,0,0,231.8,254,0,0,0,0,0,0,0,231.8,766,0,-0.0014053,-0.00103317,0.000401802,0.0155182,0.00335201,0.000372085,0.000644607,-0.000612221,-0.0138985,0.000411835,0.00046814,0.0104373,-0.0208548,0.000829735,0.000124016,-0.00859741
25,3,0,0,0,0,0,0,231.8,254,0,0,0,0,0,0,0,231.8,766,0,0.000845375,0.000416412,0.000706978,0.0164337,0.00636562,0.000867996,0.00049202,0.000799217,0.0707877,0.000869598,0.00058258,0.0153201,-0.0197485,0.00147823,0.00119213,-0.00684265
25,4,0,0,0,0,0,0,231.8,254,0,0,0,0,0,0,0,231.8,766,0,0.00015873,0.000912323,0.000363655,0.0171585,0.00670895,0.00163094,0.000873489,0.00076107,-0.00897758,0.00155624,0.000315552,0.0149768,-0.0194434,0.00124935,0.00184063,-0.00783447
25,5,0,0,0,0,0,0,231.8,254,0,0,0,0,0,0,0,231.8,766,0,4.4289e-05,0.000836029,0.000287361,0.0155182,0.00312313,0.000486526,-0.000118332,-0.000154457,-0.0117623,-0.000122223,-0.000256653,0.0169986,-0.0215033,2.86484e-05,-0.000143013,-0.00882629
25,6,0,0,0,0,0,0,231.8,254,0,0,0,0,0,0,0,231.8,766,0,0.000196877,0.000988617,0.000325508,0.0150222,0.00186428,0.000715408,-0.000347214,0.000494041,0.0851691,0.00113663,0.000506287,0.0176852,-0.0210074,0.000181236,0.00069622,-0.00867371
25,7,0,0,0,0,0,0,231.8,254,0,0,0,0,0,0,0,231.8,766,0,0.000235024,0.000645294,0.000821419,0.0170059,0.0040768,0.00113502,0.000377579,0.000989952,-0.00699394,0.000678863,0.00149811,0.010094,-0.0207785,0.000906029,0.00115398,-0.00833038
25,8,0,0,0,0,0,0,231.8,254,0,0,0,0,0,0,0,231.8,766,0,-0.00022274,0.000340118,5.84793e-05,0.0157089,0.00575527,-4.75312e-05,-0.000347214,0.000150719,-0.0147759,0.000831451,0.000429993,0.0124209,-0.0207785,0.000600853,0.000314751,-0.00825409
25,9,0,0,0,0,0,0,231.8,254,0,0,0,0,0,0,0,231.8,766,0,0.000349465,0.000263824,-0.000399284,0.0161666,0.00541195,0.00094429,0.000797195,0.00076107,0.0899375,-0.000122223,-0.000218506,0.0173419,-0.0207404,0.000448265,-0.000829658,-0.00901703
26,0,0,0,0,0,0,0,231.8,254,0,0,0,0,0,0,0,231.8,766,0,0.000654641,0.00163712,0.00185139,0.0165481,0.00354275,0.0020887,0.00117867,0.000379601,-0.00432365,0.00163254,0.000239258,0.011658,-0.0191763,0.00220303,0.000543633,-0.00718597
26,1,0,0,0,0,0,0,231.8,254,0,0,0,0,0,0,0,231.8,766,0,0.0005402,0.000416412,0.000516243,0.0168533,0.0048016,0.000181351,0.000377579,7.44248e-05,-0.0446069,0.000564422,0.000391846,0.010361,-0.0200156,-0.000162086,0.00206951,-0.00829224
26,2,0,0,0,0,0,0,231.8,254,0,0,0,0,0,0,0,231.8,766,0,0.000235024,0.0011412,0.000821419,0.0156326,0.00476345,0.00121132,0.00060646,-0.00087925,-0.00470512,0.00117477,0.00138367,0.010628,-0.0213126,0.000753441,-0.00056263,-0.00768188
26,3,0,0,0,0,0,0,231.8,254,0,0,0,0,0,0,0,231.8,766,0,0.000235024,0.000492706,0.000325508,0.0159378,0.00327572,-0.000963059,-0.00027092,-0.000307045,0.0283302,0.00109848,0.000925903,0.0110858,-0.021427,-0.000123939,0.000429192,-0.00977997
26,4,0,0,0,0,0,0,231.8,254,0,0,0,0,0,0,0,231.8,766,0,-0.000413475,0.00106491,-0.000399284,0.0156326,0.00316128,0.000410232,-0.000194626,0.000112572,0.0457633,-0.000236664,0.000697021,0.0111239,-0.0207404,0.00102047,0.000276604,-0.00955109
26,5,0,0,0,0,0,0,231.8,254,0,0,0,0,0,0,0,231.8,766,0,0.000311318,0.000607147,0.000897713,0.0167389,0.00461086,0.00136391,0.0013694,0.000875511,-0.0430428,0.00197586,-0.0002948,0.0126498,-0.0201682,0.00136379,0.00168804,-0.00669006
26,6,0,0,0,0,0,0,231.8,254,0,0,0,0,0,0,0,231.8,766,0,0.000921669,0.000492706,0.0010503,0.0173492,0.0035046,0.00132576,0.000301285,0.000494041,0.0399268,0.000793304,0.000620727,0.0153964,-0.0218085,0.000982323,0.000619926,-0.00951294
26,7,0,0,0,0,0,0,231.8,254,0,0,0,0,0,0,0,231.8,766,0,0.000196877,0.00110306,0.000668831,0.01651,7.13731e-05,0.000600967,0.00049202,0.000379601,0.0447715,0.00147995,0.000429993,0.0170749,-0.0204352,0.000944176,-0.00163074,-0.00787262
26,8,0,0,0,0,0,0,231.8,254,0,0,0,0,0,0,0,231.8,766,0,-0.000642356,-0.000727997,5.84793e-05,0.0158233,-0.00233189,0.00113502,0.000644607,0.00125698,-0.0421655,0.00106033,0.00046814,0.0161593,-0.0201682,0.000562706,0.000352898,-0.00867371
26,9,0,0,0,0,0,0,231.8,254,0,0,0,0,0,0,0,231.8,766,0,0.00130314,0.000645294,0.000478096,0.0168151,-4.92088e-06,0.00102058,0.000835342,0.000913658,0.0462974,0.000831451,0.000162964,0.0179522,-0.0215414,0.00132565,0.00107769,-0.00905518
27,0,0,0,0,0,0,0,231.8,254,0,0,0,0,0,0,0,231.8,766,0,0.000616494,-0.000232087,0.000516243,0.0168914,-0.000500832,0.00117317,0.000873489,0.000722923,0.0580848,0.00113663,0.00149811,0.0206988,-0.0208929,0.000753441,0.00138287,-0.00661377
27,1,0,0,0,0,0,0,231.8,254,0,0,0,0,0,0,0,231.8,766,0,0.000692788,0.000530853,0.000821419,0.01548,0.000185814,0.000867996,-0.000309067,0.000875511,-0.0455987,0.000831451,0.000353699,0.0170367,-0.0208929,0.000486412,0.00119213,-0.00955109
27,2,0,0,0,0,0,0,231.8,254,0,0,0,0,0,0,0,231.8,766,0,-0.000375328,0.000492706,0.000745125,0.0164337,0.00117764,-0.000200119,0.000186844,7.44248e-05,0.0476325,0.000984039,0.00104034,0.0156253,-0.0213126,0.000524559,-0.000677071,-0.00852112
27,3,0,0,0,0,0,0,231.8,254,0,0,0,0,0,0,0,231.8,766,0,0.000502053,0.000530853,0.00146992,0.0168533,0.00281796,0.00128761,0.00060646,-0.000230751,0.0640739,0.00109848,0.000353699,0.01738,-0.0203589,0.00102047,0.0010014,-0.00955109
27,4,0,0,0,0,0,0,231.8,254,0,0,0,0,0,0,0,231.8,766,0,0.0011124,0.000263824,5.84793e-05,0.0161285,0.00209316,0.000410232,0.000720901,-0.000535927,-0.0566232,0.00140366,0.000925903,0.013489,-0.0212363,0.000906029,0.000124016,-0.00970367
27,5,0,0,0,0,0,0,231.8,254,0,0,0,0,0,0,0,231.8,766,0,-0.000985679,0.000378265,0.00146992,0.0157089,0.00564083,0.00117317,0.00098793,0.000722923,-0.0182473,0.00228104,0.00096405,0.0163882,-0.0208929,0.00117306,0.00134472,-0.00855927
27,6,0,0,0,0,0,0,231.8,254,0,0,0,0,0,0,0,231.8,766,0,0.000425759,0.000340118,0.000859566,0.0161285,0.00571712,0.00102058,-3.89107e-06,0.000799217,-0.000699691,-0.000618134,0.000925903,0.0156634,-0.0210837,0.000715294,0.00123028,-0.00871185
27,7,0,0,0,0,0,0,231.8,254,0,0,0,0,0,0,0,231.8,766,0,0.000502053,0.00106491,0.00223286,0.0176925,0.00701412,0.00102058,7.24029e-05,-0.000154457,0.0604499,0.00170883,0.00138367,0.0149768,-0.0200156,0.00151638,0.00161175,-0.00909332
27,8,0,0,0,0,0,0,231.8,254,0,0,0,0,0,0,0,231.8,766,0,0.000502053,-7.94986e-05,-0.00020855,0.0156707,0.00827297,0.000410232,-8.0185e-05,-0.00011631,-0.0138985,0.000182953,4.85228e-05,0.0153964,-0.0201682,0.000867882,0.00058178,-0.00928406
27,9,0,0,0,0,0,0,231.8,254,0,0,0,0,0,0,0,231.8,766,0,0.000692788,0.000492706,0.000363655,0.0175018,0.00411495,0.000448379,0.000873489,0.000837364,-0.0167214,0.00170883,0.00107849,0.0148623,-0.0204352,0.00155453,0.000925102,-0.00798706
28,0,0,0,0,0,0,0,231.8,254,0,0,0,0,0,0,0,231.8,766,0,0.000921669,0.000530853,0.000783272,0.0172729,0.00709042,0.000791702,0.00125496,0.000913658,0.0674689,0.00132736,0.000620727,0.0154727,-0.0200919,0.00178341,0.00123028,-0.00783447
28,1,0,0,0,0,0,0,231.8,254,0,0,0,0,0,0,0,231.8,766,0,0.000769082,0.00110306,0.000706978,0.0168151,0.00510677,0.00109688,0.000530167,0.00110439,-0.0151574,0.000526275,0.000925903,0.0166934,-0.0214651,0.000410118,0.0015736,-0.00741486
28,2,0,0,0,0,0,0,231.8,254,0,0,0,0,0,0,0,231.8,766,0,-0.000337181,0.00018753,0.000516243,0.0161285,0.0028561,0.000982437,0.000835342,-0.00152775,-0.0136315,3.03648e-05,-0.000218506,0.0136798,-0.0200919,0.000600853,0.000352898,-0.00913147
28,3,0,0,0,0,0,0,231.8,254,0,0,0,0,0,0,0,231.8,766,0,0.000349465,-0.000384674,0.000439949,0.015213,0.00049099,0.000524673,7.24029e-05,0.000646629,0.0824989,-0.000465546,-0.000447388,0.0149768,-0.0222662,0.000181236,0.0010014,-0.00806335
28,4,0,0,0,0,0,0,231.8,254,0,0,0,0,0,0,0,231.8,766,0,0.000463906,0.000149383,0.000325508,0.0169296,0.00216946,0.000448379,0.000301285,0.000455895,-0.0108468,0.000602569,0.000811462,0.0176852,-0.0221518,0.00109676,0.00119213,-0.00836853
28,5,0,0,0,0,0,0,231.8,254,0,0,0,0,0,0,0,231.8,766,0,0.000425759,0.000416412,0.000859566,0.0163574,0.0022076,0.000524673,0.000797195,-0.000345192,-0.0178658,0.000793304,0.000391846,0.0182956,-0.0214651,0.000639,0.000848808,-0.0102759
28,6,0,0,0,0,0,0,231.8,254,0,0,0,0,0,0,0,231.8,766,0,0.000845375,0.00167526,0.0010503,0.0169296,0.000872459,0.00121132,0.000339432,0.00026516,0.0883353,0.000564422,0.00107849,0.0214236,-0.0194815,0.00147823,0.0010014,-0.00791077
28,7,0,0,0,0,0,0,231.8,254,0,0,0,0,0,0,0,231.8,766,0,0.000730935,0.000492706,0.00131733,0.0174636,0.00251278,0.000372085,0.000873489,0.00129513,-0.00756615,0.00071701,0.00046814,0.0180285,-0.0208167,0.00105862,0.00126843,-0.00875
28,8,0,0,0,0,0,0,231.8,254,0,0,0,0,0,0,0,231.8,766,0,-0.00022274,0.0012175,0.000668831,0.0157089,0.00281796,0.000753555,-0.000309067,-0.000345192,-0.0491082,0.000144806,-0.000752564,0.0131457,-0.0204352,0.000371971,0.00134472,-0.00909332
28,9,0,0,0,0,0,0,231.8,254,0,0,0,0,0,0,0,231.8,766,0,0.000616494,0.000607147,0.000516243,0.0171585,0.00365719,0.000791702,0.000835342,0.000455895,-0.00798576,0.000640716,0.00172699,0.014252,-0.0213507,0.000944176,0.00069622,-0.00951294
29,0,0,0,0,0,0,0,231.8,254,0,0,0,0,0,0,0,231.8,766,0,0.000654641,0.000340118,0.000897713,0.0160904,0.00483974,-9.38424e-06,-0.000118332,0.00106625,0.027758,0.000793304,8.66698e-05,0.014786,-0.0208167,0.00025753,-0.000219307,-0.00791077
29,1,0,0,0,0,0,0,231.8,254,0,0,0,0,0,0,0,231.8,766,0,0.000311318,-0.00019394,0.000592537,0.0157852,0.00358089,0.00121132,0.000224991,0.00026516,0.0447715,-0.000351105,0.000697021,0.0147479,-0.0212744,0.00113491,0.0022221,-0.00924591
29,2,0,0,0,0,0,0,231.8,254,0,0,0,0,0,0,0,231.8,766,0,0.00103611,0.000645294,0.000668831,0.0163192,0.00632748,0.00113502,0.000644607,0.000455895,-0.0473916,0.00136551,0.00107849,0.0139849,-0.0194434,0.00243191,0.00138287,-0.00730042
29,3,0,0,0,0,0,0,231.8,254,0,0,0,0,0,0,0,231.8,766,0,0.000769082,0.00137009,0.00101215,0.0159378,0.00510677,0.00140205,0.0013694,0.000913658,0.0396598,0.000755157,-0.000828858,0.0148623,-0.0210837,0.000143089,0.00111584,-0.00676636
29,4,0,0,0,0,0,0,231.8,254,0,0,0,0,0,0,0,231.8,766,0,0.000463906,0.000492706,0.000401802,0.0163574,0.00270351,0.000295792,0.00102608,0.00076107,0.0437797,0.00125107,0.00119293,0.0134509,-0.0202444,0.00166897,0.000772514,-0.00875
29,5,0,0,0,0,0,0,231.8,254,0,0,0,0,0,0,0,231.8,766,0,0.000845375,0.000263824,0.000325508,0.0157089,0.00232204,-0.000161972,0.000339432,-0.000459633,-0.044378,0.000488129,8.66698e-05,0.0133364,-0.0215796,2.86484e-05,0.000734367,-0.00916962
29,6,0,0,0,0,0,0,231.8,254,0,0,0,0,0,0,0,231.8,766,0,0.000997963,0.00095047,0.00017292,0.0150985,0.0028561,0.00117317,0.000415726,0.00133327,0.0452293,0.00182327,0.00184143,0.0123828,-0.0192908,0.00163082,0.00176434,-0.00859741
29,7,0,0,0,0,0,0,231.8,254,0,0,0,0,0,0,0,231.8,766,0,0.00134129,0.000111236,0.00135548,0.0172348,0.00487789,0.000639114,0.00171272,0.000989952,0.0572456,0.000449982,0.00104034,0.0144809,-0.0197867,0.00166897,0.00149731,-0.0081778
29,8,0,0,0,0,0,0,231.8,254,0,0,0,0,0,0,0,231.8,766,0,0.0005402,0.000378265,0.00101215,0.0159759,0.00361904,0.00094429,0.000148697,0.00076107,-0.0480782,0.00106033,0.000811462,0.0136035,-0.0194052,0.00151638,0.00126843,-0.00951294
29,9,0,0,0,0,0,0,231.8,254,0,0,0,0,0,0,0,231.8,766,0,0.000692788,0.000988617,9.66262e-05,0.0164337,-0.000996742,0.000105057,0.000682754,0.000570335,0.0470222,0.000564422,0.00115479,0.0150912,-0.0220374,0.000677147,0.00168804,-0.00798706
30,0,0,0,0,0,0,0,231.8,254,0,0,0,0,0,0,0,231.8,766,0,0.00141758,0.000683441,0.000974007,0.01651,-0.000996742,0.000372085,0.000530167,0.00026516,0.064379,0.000411835,0.00115479,0.0133746,-0.0207404,0.000791588,0.000314751,-0.00863556
30,1,0,0,0,0,0,0,231.8,254,0,0,0,0,0,0,0,231.8,766,0,0.000463906,0.00182785,0.000897713,0.0162811,0.000872459,0.000677261,0.000224991,0.000112572,-0.0602471,-0.000465546,0.000201111,0.00963619,-0.0217703,-0.000657997,0.000467339,-0.00867371
30,2,0,0,0,0,0,0,231.8,254,0,0,0,0,0,0,0,231.8,766,0,0.000196877,0.000301971,0.000745125,0.0166626,0.000681725,0.000982437,0.00102608,-0.000268898,-0.0201546,0.00106033,0.000620727,0.00807217,-0.0211981,0.000944176,-2.8572e-05,-0.00890259
30,3,0,0,0,0,0,0,231.8,254,0,0,0,0,0,0,0,231.8,766,0,0.00015873,-3.20468e-06,0.000249214,0.0160141,0.00140652,0.000333939,0.00114052,0.000913658,-0.00295036,0.000144806,-0.0002948,0.00791958,-0.0220374,0.000524559,0.000352898,-0.00798706
30,4,0,0,0,0,0,0,231.8,254,0,0,0,0,0,0,0,231.8,766,0,0.0011124,0.000149383,0.000325508,0.0161666,0.00312313,0.000448379,0.000873489,-0.000268898,0.0636161,3.03648e-05,0.000620727,0.00963619,-0.0209311,0.00124935,0.000467339,-0.00897888
30,5,0,0,0,0,0,0,231.8,254,0,0,0,0,0,0,0,231.8,766,0,8.2436e-05,-0.000804291,0.000592537,0.0160904,0.00232204,0.000181351,0.00152199,-0.00011631,-0.0155389,0.0002211,0.00058258,0.0124591,-0.0212363,0.000333824,4.77219e-05,-0.00791077
30,6,0,0,0,0,0,0,231.8,254,0,0,0,0,0,0,0,231.8,766,0,0.00103611,0.0011412,0.00108845,0.0158996,0.00609859,0.00113502,0.00117867,0.000608482,-0.0177514,0.000564422,0.000773315,0.0143664,-0.0205496,0.000639,0.000925102,-0.00844482
30,7,0,0,0,0,0,0,231.8,254,0,0,0,0,0,0,0,231.8,766,0,0.000463906,0.000340118,0.000668831,0.0176925,0.00827297,0.00056282,0.00129311,-0.000383339,0.0689948,0.000259247,0.00161255,0.0132602,-0.0196722,0.000181236,0.00176434,-0.00775818
30,8,0,0,0,0,0,0,231.8,254,0,0,0,0,0,0,0,231.8,766,0,-7.01519e-05,-7.94986e-05,0.000706978,0.0160522,0.00590786,0.000219498,0.00110237,3.62778e-05,-0.0141274,-0.000198517,-0.0002948,0.016083,-0.0209692,0.000639,0.00119213,-0.00951294
30,9,0,0,0,0,0,0,231.8,254,0,0,0,0,0,0,0,231.8,766,0,0.000807228,0.00148453,-5.59617e-05,0.0161285,0.00525936,-4.75312e-05,-0.00122459,0.000684776,-0.0167977,-0.000579987,8.66698e-05,0.0219577,-0.0219611,0.000639,0.00199322,-0.00859741
31,0,0,0,0,0,0,0,231.8,254,0,0,0,0,0,0,0,231.8,766,0,0.000578347,0.000721588,0.00127918,0.0172729,0.00613674,0.00113502,0.00213234,0.000379601,0.0840247,0.000869598,0.000887756,0.0173419,-0.0195197,0.00159267,0.00161175,-0.00741486
31,1,0,0,0,0,0,0,231.8,254,0,0,0,0,0,0,0,231.8,766,0,0.00130314,0.00018753,0.000439949,0.0159759,0.00575527,0.000867996,3.42559e-05,0.000570335,-0.0121056,-0.000351105,0.000544433,0.00887325,-0.0205115,0.000524559,0.000391045,-0.0093222
31,2,0,0,0,0,0,0,231.8,254,0,0,0,0,0,0,0,231.8,766,0,0.000235024,0.000416412,0.000363655,0.0163192,0.00499233,0.000181351,0.00133125,3.62778e-05,-0.0200402,0.000869598,0.00126923,0.00021389,-0.0214651,0.00117306,0.000543633,-0.00844482
31,3,0,0,0,0,0,0,231.8,254,0,0,0,0,0,0,0,231.8,766,0,0.000196877,-4.13517e-05,0.00135548,0.0161666,0.00739559,0.000295792,0.000873489,-0.000154457,0.0886024,-0.000427399,8.66698e-05,0.00658443,-0.0207785,-8.57925e-05,0.000810661,-0.00829224
31,4,0,0,0,0,0,0,231.8,254,0,0,0,0,0,0,0,231.8,766,0,0.000845375,0.000378265,2.03323e-05,0.0165863,0.0120114,0.000600967,0.000759048,0.00144772,-0.00935905,0.000335541,0.0010022,0.0222628,-0.0211218,0.000562706,0.00138287,-0.0093222
31,5,0,0,0,0,0,0,231.8,254,0,0,0,0,0,0,0,231.8,766,0,0.0011887,0.000988617,0.00135548,0.01651,0.0148343,0.00109688,0.000682754,0.000532188,-0.0517022,0.00109848,0.000429993,0.0285189,-0.0209311,0.000562706,-0.000295601,-0.00890259
31,6,0,0,0,0,0,0,231.8,254,0,0,0,0,0,0,0,231.8,766,0,0.000654641,0.000454559,-0.000666313,0.0163574,0.0123928,6.69097e-05,0.000720901,0.000341454,-0.00954979,-0.000847016,-2.77711e-05,0.0249331,-0.0210837,-0.000314674,0.00138287,-0.00943665
31,7,0,0,0,0,0,0,231.8,254,0,0,0,0,0,0,0,231.8,766,0,0.000425759,-3.20468e-06,0.000783272,0.0162429,0.00987514,0.000791702,0.000301285,-0.000688515,0.0285209,0.000297394,0.000315552,0.0161975,-0.0204733,0.000906029,0.000467339,-0.0081778
31,8,0,0,0,0,0,0,231.8,254,0,0,0,0,0,0,0,231.8,766,0,0.00103611,-7.94986e-05,0.000516243,0.01651,0.00590786,0.000982437,0.000720901,0.000303307,0.0458396,0.000182953,0.000391846,0.0134127,-0.0208929,0.000829735,0.000772514,-0.00897888
31,9,0,0,0,0,0,0,231.8,254,0,0,0,0,0,0,0,231.8,766,0,0.0011887,0.000607147,0.00093586,0.0161285,0.00609859,0.00159279,0.00190346,0.000913658,-0.0501,0.00117477,0.00134552,0.0141757,-0.0207785,0.0012112,0.00168804,-0.00768188
32,0,0,0,0,0,0,0,231.8,254,0,0,0,0,0,0,0,231.8,766,0,0.00115055,0.000912323,0.000783272,0.0157089,0.00632748,-0.000123825,0.00106422,0.00114254,0.038668,0.00106033,-0.000485535,0.014786,-0.0211218,0.00025753,0.00069622,-0.00882629
32,1,0,0,0,0,0,0,231.8,254,0,0,0,0,0,0,0,231.8,766,0,6.14207e-06,0.000569,0.000363655,0.0161666,0.00510677,-0.000467148,-0.000385361,-4.00161e-05,0.0449241,-7.78213e-06,-0.000485535,0.0130313,-0.0209311,6.67954e-05,0.00164989,-0.0081015
32,2,0,0,0,0,0,0,231.8,254,0,0,0,0,0,0,0,231.8,766,0,0.000769082,0.000988617,0.000706978,0.0161666,0.00483974,0.000829849,0.00102608,0.000951805,-0.0483071,0.000640716,0.00096405,0.0133746,-0.0212744,0.00159267,0.00020031,-0.00791077
32,3,0,0,0,0,0,0,231.8,254,0,0,0,0,0,0,0,231.8,766,0,0.00153202,0.000492706,0.000974007,0.0156707,0.0054501,0.00155464,0.00178902,0.000341454,0.0450385,-0.000274811,-0.0002948,0.0104373,-0.0202826,0.000715294,0.000543633,-0.00772003
32,4,0,0,0,0,0,0,231.8,254,0,0,0,0,0,0,0,231.8,766,0,0.000807228,0.000416412,-0.00032299,0.0160522,0.00487789,0.000715408,0.00049202,0.000989952,0.0579704,-0.00054184,0.00046814,0.0136798,-0.0200537,0.0012112,0.00111584,-0.00794891
32,5,0,0,0,0,0,0,231.8,254,0,0,0,0,0,0,0,231.8,766,0,0.000997963,0.00152267,0.0010503,0.0166626,0.00358089,0.00159279,0.000835342,0.00076107,-0.0515115,0.000793304,0.00058258,0.0139849,-0.021694,0.00166897,8.58689e-05,-0.00875
32,6,0,0,0,0,0,0,231.8,254,0,0,0,0,0,0,0,231.8,766,0,0.00126499,0.00117935,9.66262e-05,0.0158996,0.00533566,0.00117317,0.000148697,0.00118069,0.0475562,0.000640716,0.00138367,0.0137561,-0.0195197,0.00147823,0.00252728,-0.00791077
32,7,0,0,0,0,0,0,231.8,254,0,0,0,0,0,0,0,231.8,766,0,0.00168461,0.00137009,0.00146992,0.0161666,0.00262722,0.000906143,0.00182716,0.000303307,0.0653327,0.000411835,0.000658874,0.0165789,-0.020397,0.000829735,-0.000257454,-0.00840668
32,8,0,0,0,0,0,0,231.8,254,0,0,0,0,0,0,0,231.8,766,0,-7.01519e-05,0.000378265,0.00139362,0.016777,0.00281796,0.000982437,0.000797195,0.000341454,-0.0624596,0.000984039,-0.000218506,0.0163119,-0.0208548,0.000753441,0.000314751,-0.00749115
32,9,0,0,0,0,0,0,231.8,254,0,0,0,0,0,0,0,231.8,766,0,0.000883522,0.000225677,0.000363655,0.0165863,0.00426754,0.000257645,0.000339432,0.000722923,-0.0220238,0.000373688,0.000506287,0.0164645,-0.0208929,0.00105862,0.000124016,-0.00855927
33,0,0,0,0,0,0,0,231.8,254,0,0,0,0,0,0,0,231.8,766,0,0.000883522,-3.20468e-06,0.000249214,0.0158615,0.00831112,0.000295792,0.000415726,0.000684776,-0.00401848,0.0002211,-0.00067627,0.0137942,-0.0204352,0.000791588,0.000848808,-0.00787262
33,1,0,0,0,0,0,0,231.8,254,0,0,0,0,0,0,0,231.8,766,0,0.000921669,0.00125565,0.00112659,0.0159378,0.00915035,0.00094429,0.000263138,0.000646629,0.0637687,0.00106033,-0.000332947,0.0110858,-0.0196722,0.000982323,0.000925102,-0.00760559
33,2,0,0,0,0,0,0,231.8,254,0,0,0,0,0,0,0,231.8,766,0,0.000425759,-3.20468e-06,0.000897713,0.0160522,0.00785336,-8.56782e-05,0.00106422,-0.00011631,-0.0174462,0.000984039,0.000239258,0.00925472,-0.0215033,0.000371971,0.000467339,-0.00913147
33,3,0,0,0,0,0,0,231.8,254,0,0,0,0,0,0,0,231.8,766,0,0.0005402,0.00144638,0.000439949,0.015747,0.00621304,0.000600967,-0.000156479,-0.000154457,-0.0214135,0.00128921,0.00046814,0.0117724,-0.0213507,0.00132565,0.00153545,-0.00859741
33,4,0,0,0,0,0,0,231.8,254,0,0,0,0,0,0,0,231.8,766,0,0.000883522,0.000988617,0.000974007,0.0170059,0.00430569,0.0014402,0.000301285,0.000379601,0.0704063,-0.00054184,0.00058258,0.0179141,-0.0198248,0.00124935,-0.00018116,-0.00783447
33,5,0,0,0,0,0,0,231.8,254,0,0,0,0,0,0,0,231.8,766,0,0.00107426,0.000301971,0.00116474,0.0159759,0.00358089,0.00132576,0.00114052,0.00076107,-0.0152718,0.00113663,-0.000218506,0.0175326,-0.0202826,0.00174526,0.0010014,-0.00775818
33,6,0,0,0,0,0,0,231.8,254,0,0,0,0,0,0,0,231.8,766,0,0.0005402,0.000111236,0.00055439,0.0153656,0.00377163,0.000333939,-0.000385361,-0.000612221,-0.019468,0.000182953,-0.000828858,0.0142901,-0.0205496,0.000486412,-0.00018116,-0.00707153
33,7,0,0,0,0,0,0,231.8,254,0,0,0,0,0,0,0,231.8,766,0,8.2436e-05,0.00018753,0.000630684,0.0150222,0.00400051,0.000906143,0.000377579,3.62778e-05,0.0853599,0.000564422,-0.00143921,0.0132983,-0.022991,-0.000467262,-0.000410042,-0.00844482
33,8,0,0,0,0,0,0,231.8,254,0,0,0,0,0,0,0,231.8,766,0,0.00115055,0.000530853,0.00120289,0.0165863,0.00693783,0.00109688,-0.000843124,0.0010281,-0.0122582,0.00125107,0.00119293,0.0174563,-0.0223044,0.00025753,0.000429192,-0.00726227
33,9,0,0,0,0,0,0,231.8,254,0,0,0,0,0,0,0,231.8,766,0,-0.000947532,0.000607147,0.000706978,0.0156707,0.00533566,0.00102058,0.00011055,0.000494041,-0.0215661,-0.000312958,0.000391846,0.0163119,-0.0216559,2.86484e-05,0.000467339,-0.00813965
34,0,0,0,0,0,0,0,231.8,254,0,0,0,0,0,0,0,231.8,766,0,0.000845375,0.000301971,-0.000513725,0.0157852,0.00628933,0.000524673,0.000263138,0.000303307,0.0903571,0.00140366,-0.000905151,0.0205844,-0.0202826,0.00124935,0.000276604,-0.0081778
34,1,0,0,0,0,0,0,231.8,254,0,0,0,0,0,0,0,231.8,766,0,0.000120583,0.00102676,0.000859566,0.0169677,0.00419125,0.00113502,0.00121681,0.0010281,-0.0111901,0.000984039,0.000658874,0.0277942,-0.0203589,0.00140194,0.00069622,-0.00813965
34,2,0,0,0,0,0,0,231.8,254,0,0,0,0,0,0,0,231.8,766,0,0.000845375,0.000263824,0.000897713,0.0161666,0.00297054,0.000753555,0.000148697,0.000722923,-0.0541055,-0.000122223,4.85228e-05,0.0272982,-0.0209692,0.000524559,0.000886955,-0.00833038
34,3,0,0,0,0,0,0,231.8,254,0,0,0,0,0,0,0,231.8,766,0,0.000120583,0.000759735,0.00116474,0.0160522,0.00102505,0.00117317,0.000759048,0.000799217,-0.0110757,0.00193771,0.000925903,0.0192111,-0.019863,0.000410118,0.00069622,-0.00768188
34,4,0,0,0,0,0,0,231.8,254,0,0,0,0,0,0,0,231.8,766,0,0.00145573,-0.000117646,-0.000475578,0.0165863,0.0028561,0.000524673,0.00060646,0.000227013,0.0277961,0.000678863,0.00058258,0.0140612,-0.0201682,0.000486412,-6.6719e-05,-0.007453
34,5,0,0,0,0,0,0,231.8,254,0,0,0,0,0,0,0,231.8,766,0,0.00134129,0.000645294,0.000325508,0.0168533,0.00358089,0.00121132,0.00125496,0.000608482,0.0482047,0.00136551,0.000925903,0.0145572,-0.0195197,0.00239376,0.00161175,-0.00783447
34,6,0,0,0,0,0,0,231.8,254,0,0,0,0,0,0,0,231.8,766,0,-0.000451622,-0.000155793,0.000363655,0.0163955,0.00522121,0.000295792,-0.000537949,0.000303307,-0.0525414,0.000297394,0.000697021,0.018677,-0.0203589,0.000944176,8.58689e-05,-0.00791077
34,7,0,0,0,0,0,0,231.8,254,0,0,0,0,0,0,0,231.8,766,0,-0.00022274,0.000378265,0.000249214,0.0160141,0.00564083,0.000600967,7.24029e-05,0.000379601,0.0405372,0.000907745,-0.000790711,0.0153582,-0.0212363,0.000944176,0.000391045,-0.00783447
34,8,0,0,0,0,0,0,231.8,254,0,0,0,0,0,0,0,231.8,766,0,0.000463906,0.0011412,2.03323e-05,0.0170059,0.00487789,0.00201241,0.00152199,0.0010281,0.0427879,0.00125107,0.000429993,0.00807217,-0.0193289,0.00147823,0.000429192,-0.00737671
34,9,0,0,0,0,0,0,231.8,254,0,0,0,0,0,0,0,231.8,766,0,0.000120583,0.000569,0.00120289,0.0169296,0.00369534,0.00113502,0.00102608,0.000532188,-0.0491845,0.000526275,-6.59181e-05,0.0131457,-0.0223044,0.000448265,0.00123028,-0.00829224
35,0,0,0,0,0,0,0,231.8,254,0,0,0,0,0,0,0,231.8,766,0,0.000463906,0.000530853,5.84793e-05,0.0160522,0.00049099,2.87627e-05,-0.000881271,-0.000230751,0.0464118,0.000488129,-0.000332947,0.0156634,-0.02013,0.000562706,-0.000219307,-0.00947479
35,1,0,0,0,0,0,0,231.8,254,0,0,0,0,0,0,0,231.8,766,0,0.0005402,-4.13517e-05,-0.000132256,0.0159759,0.00113949,-0.000123825,0.000377579,0.000188866,0.0581229,0.000488129,0.000277405,0.0164264,-0.0210455,0.000104942,0.00123028,-0.00775818
35,2,0,0,0,0,0,0,231.8,254,0,0,0,0,0,0,0,231.8,766,0,0.000654641,0.000340118,0.000439949,0.0158615,0.00232204,0.00147835,0.00121681,-0.000535927,-0.0538384,0.000640716,-0.00067627,0.0148623,-0.0210455,0.000104942,0.00069622,-0.00875
35,3,0,0,0,0,0,0,231.8,254,0,0,0,0,0,0,0,231.8,766,0,0.00130314,-0.00068985,0.00055439,0.0164337,0.00178799,0.000524673,0.00251381,0.000837364,0.0468314,-0.000198517,0.000811462,0.0142901,-0.0200537,0.00124935,0.000886955,-0.00806335
35,4,0,0,0,0,0,0,231.8,254,0,0,0,0,0,0,0,231.8,766,0,0.000196877,-7.94986e-05,0.000325508,0.0151367,0.000948753,0.000257645,-0.000537949,0.000150719,0.066706,0.00147995,-0.000714417,0.0155871,-0.0229147,0.000524559,-2.8572e-05,-0.00901703
35,5,0,0,0,0,0,0,231.8,254,0,0,0,0,0,0,0,231.8,766,0,0.000692788,0.0011412,2.03323e-05,0.0152893,0.000529137,0.000143204,0.000224991,0.00026516,-0.0647485,0.00163254,-0.000638123,0.0152056,-0.0208929,0.000181236,0.000314751,-0.00867371
35,6,0,0,0,0,0,0,231.8,254,0,0,0,0,0,0,0,231.8,766,0,0.000769082,0.0011412,0.000783272,0.0157852,0.00148281,0.0014402,0.00060646,-0.000192604,-0.0227486,0.00102219,-0.00101959,0.014786,-0.0202063,0.000562706,-0.000944099,-0.00779633
35,7,0,0,0,0,0,0,231.8,254,0,0,0,0,0,0,0,231.8,766,0,6.14207e-06,0.000263824,0.000974007,0.0158233,0.00232204,0.000677261,0.000949783,0.000722923,-0.00462883,0.000907745,-2.77711e-05,0.0114672,-0.0210455,0.00216488,0.00149731,-0.00981812
35,8,0,0,0,0,0,0,231.8,254,0,0,0,0,0,0,0,231.8,766,0,0.000502053,0.00018753,0.00124104,0.0165863,-0.000577125,0.00105873,0.000301285,0.000608482,0.0645698,0.000526275,0.000773315,0.0120395,-0.0206641,0.000562706,-0.000104866,-0.00775818
35,9,0,0,0,0,0,0,231.8,254,0,0,0,0,0,0,0,231.8,766,0,0.000425759,0.000416412,0.00093586,0.0151367,-0.00240818,0.000410232,-0.000194626,-4.00161e-05,-0.0161492,0.000488129,-6.59181e-05,0.0149005,-0.0206259,0.000181236,0.00145916,-0.00791077
36,0,0,0,0,0,0,0,231.8,254,0,0,0,0,0,0,0,231.8,766,0,0.000502053,0.000721588,0.00112659,0.0166244,-0.0028278,0.00159279,0.00106422,0.000532188,-0.0214898,0.00125107,0.000620727,0.0131839,-0.02013,0.0018597,0.000810661,-0.00905518
36,1,0,0,0,0,0,0,231.8,254,0,0,0,0,0,0,0,231.8,766,0,0.00137943,0.0012175,0.00139362,0.0170059,0.000605431,0.000448379,0.000835342,0.000875511,0.0727714,0.00102219,0.000620727,0.0112384,-0.0207404,0.000867882,0.000162163,-0.00852112
36,2,0,0,0,0,0,0,231.8,254,0,0,0,0,0,0,0,231.8,766,0,0.000883522,0.000416412,0.00124104,0.0167007,0.000796166,0.00105873,0.000759048,0.000150719,-0.0167596,0.0015181,0.000735168,0.0114672,-0.0202063,0.00159267,0.00164989,-0.0081778
36,3,0,0,0,0,0,0,231.8,254,0,0,0,0,0,0,0,231.8,766,0,0.0011887,0.000797882,0.000592537,0.0161285,-0.000882301,0.00147835,0.000911636,0.000303307,-0.0195443,0.00113663,0.000697021,0.0123065,-0.0203589,0.00105862,0.000467339,-0.00863556
36,4,0,0,0,0,0,0,231.8,254,0,0,0,0,0,0,0,231.8,766,0,0.000235024,-0.000422821,0.00173695,0.016777,0.00224575,0.00140205,0.00125496,0.000722923,0.0871528,0.00106033,-0.000523682,0.0157779,-0.0197867,0.00182156,0.00111584,-0.00886444
36,5,0,0,0,0,0,0,231.8,254,0,0,0,0,0,0,0,231.8,766,0,0.0011124,0.00140823,0.000401802,0.0168914,0.00346645,0.000715408,0.000911636,0.00076107,-0.0142419,0.00106033,0.000391846,0.0140612,-0.0216559,0.00136379,0.000810661,-0.00890259
36,6,0,0,0,0,0,0,231.8,254,0,0,0,0,0,0,0,231.8,766,0,0.000692788,0.00018753,0.000134773,0.0162048,0.000147667,0.00094429,0.000568314,-0.000383339,-0.0226342,0.000984039,0.000697021,0.00757626,-0.0207785,0.00124935,0.000314751,-0.00848297
36,7,0,0,0,0,0,0,231.8,254,0,0,0,0,0,0,0,231.8,766,0,0.000273171,-0.000460968,0.00055439,0.0154037,0.00148281,0.000295792,-0.000347214,-0.000307045,0.0925315,-0.000503693,-0.000104065,0.0110476,-0.0223807,-0.000162086,-6.6719e-05,-0.00852112
36,8,0,0,0,0,0,0,231.8,254,0,0,0,0,0,0,0,231.8,766,0,4.4289e-05,0.000607147,0.00135548,0.0176925,0.00209316,0.000753555,0.00186531,0.000227013,-0.0113808,0.00140366,0.000353699,0.0187533,-0.0202826,0.0012112,0.000505486,-0.00833038
36,9,0,0,0,0,0,0,231.8,254,0,0,0,0,0,0,0,231.8,766,0,0.000387612,0.000416412,0.0010503,0.0158996,0.00251278,0.000448379,0.000568314,0.000494041,-0.0573098,0.00136551,0.000315552,0.010361,-0.0205496,0.00102047,0.00069622,-0.00855927
37,0,0,0,0,0,0,0,231.8,254,0,0,0,0,0,0,0,231.8,766,0,0.00122685,0.000607147,2.03323e-05,0.0157089,0.00300869,0.000906143,0.000911636,0.000646629,-0.0116097,0.000106659,1.03759e-05,0.00326565,-0.02116,0.00132565,0.000467339,-0.00798706
37,1,0,0,0,0,0,0,231.8,254,0,0,0,0,0,0,0,231.8,766,0,0.00137943,0.00110306,0.00055439,0.0156707,0.00262722,0.000677261,0.0013694,0.00106625,0.027262,0.000945892,0.000315552,0.00383785,-0.0205115,0.000486412,0.000352898,-0.00859741
37,2,0,0,0,0,0,0,231.8,254,0,0,0,0,0,0,0,231.8,766,0,0.00015873,0.000378265,0.00127918,0.0165481,0.0035046,0.00109688,0.000682754,0.000379601,0.0488914,0.000755157,0.000506287,0.00719479,-0.0216177,0.000906029,0.000848808,-0.00764374
37,3,0,0,0,0,0,0,231.8,254,0,0,0,0,0,0,0,231.8,766,0,0.00107426,0.000111236,0.00139362,0.0170822,0.00335201,0.00113502,0.0013694,0.00106625,-0.055288,0.000564422,0.0010022,0.0095599,-0.0206259,0.00140194,0.000848808,-0.00787262
37,4,0,0,0,0,0,0,231.8,254,0,0,0,0,0,0,0,231.8,766,0,0.00145573,0.0011412,0.00127918,0.0168151,0.00510677,0.000753555,0.000835342,0.000989952,0.0397742,0.00117477,0.000735168,0.0145572,-0.0205878,0.000562706,0.00176434,-0.0081778
37,5,0,0,0,0,0,0,231.8,254,0,0,0,0,0,0,0,231.8,766,0,0.000120583,0.000759735,0.000783272,0.0175399,0.00636562,0.000791702,0.000797195,0.00106625,0.0453056,0.00071701,0.00138367,0.0151294,-0.0211218,0.00163082,0.00210766,-0.00905518
37,6,0,0,0,0,0,0,231.8,254,0,0,0,0,0,0,0,231.8,766,0,0.00015873,0.00018753,-9.41086e-05,0.0150985,0.00255093,0.000333939,0.00060646,-0.000268898,-0.0513589,0.000793304,-0.00143921,0.010895,-0.0202444,0.000867882,0.000734367,-0.00695709
37,7,0,0,0,0,0,0,231.8,254,0,0,0,0,0,0,0,231.8,766,0,0.000654641,-0.000117646,-1.78147e-05,0.0152893,0.00648006,-0.000505295,0.000720901,0.000608482,0.0454963,-0.000198517,0.000773315,0.0124972,-0.0220755,-0.000810585,0.00184063,-0.0109244
37,8,0,0,0,0,0,0,231.8,254,0,0,0,0,0,0,0,231.8,766,0,0.00103611,3.49423e-05,0.000630684,0.0162048,0.00956997,-8.56782e-05,0.00121681,-0.000192604,0.0598396,0.00109848,0.000697021,0.0188678,-0.0208167,0.00151638,0.000467339,-0.00833038
37,9,0,0,0,0,0,0,231.8,254,0,0,0,0,0,0,0,231.8,766,0,0.000502053,0.000492706,0.000363655,0.0160522,0.0105236,0.000715408,-0.00065239,0.000303307,-0.0554025,0.00102219,0.000124817,0.0182193,-0.0210455,-0.000276527,0.000734367,-0.00947479
38,0,0,0,0,0,0,0,231.8,254,0,0,0,0,0,0,0,231.8,766,0,0.0005402,0.00140823,0.0016988,0.0167007,0.00808224,0.00182167,0.000682754,0.00076107,0.0470603,0.0015181,0.000887756,0.0174182,-0.0202063,0.00163082,0.00187878,-0.0081015
38,1,0,0,0,0,0,0,231.8,254,0,0,0,0,0,0,0,231.8,766,0,-0.000451622,7.30893e-05,0.0010503,0.0157852,0.00403866,0.00105873,0.00129311,0.000417748,0.0667823,3.03648e-05,0.00046814,0.0158923,-0.0216177,0.000982323,0.00149731,-0.00894073
38,2,0,0,0,0,0,0,231.8,254,0,0,0,0,0,0,0,231.8,766,0,-0.000146446,0.0011412,0.000668831,0.0161285,0.00346645,0.000143204,0.000568314,0.000341454,-0.0673425,-7.78213e-06,0.00046814,0.0194018,-0.0219229,0.000333824,0.00115398,-0.00829224
38,3,0,0,0,0,0,0,231.8,254,0,0,0,0,0,0,0,231.8,766,0,0.000311318,-7.94986e-05,5.84793e-05,0.0161666,0.00533566,0.000257645,0.00144569,0.000532188,-0.0243508,0.000564422,0.000620727,0.0160067,-0.0209692,0.000829735,0.000619926,-0.00894073
38,4,0,0,0,0,0,0,231.8,254,0,0,0,0,0,0,0,231.8,766,0,0.000311318,0.000645294,0.000897713,0.0157089,0.00438198,0.000753555,0.000568314,0.000494041,-0.00485771,0.000869598,0.00138367,0.0166171,-0.0220755,-0.000123939,0.00199322,-0.00878815
38,5,0,0,0,0,0,0,231.8,254,0,0,0,0,0,0,0,231.8,766,0,-0.000794944,-0.000117646,0.000363655,0.0162429,0.00403866,0.000333939,0.00117867,-0.00011631,0.0667823,0.000640716,0.000773315,0.0186389,-0.0210837,0.000944176,0.000162163,-0.00981812
38,6,0,0,0,0,0,0,231.8,254,0,0,0,0,0,0,0,231.8,766,0,0.00191349,0.000111236,9.66262e-05,0.0158615,0.0022076,0.000600967,0.000301285,0.000188866,-0.017904,0.00155624,-0.000218506,0.0176471,-0.0211218,0.000791588,0.000810661,-0.00878815
38,7,0,0,0,0,0,0,231.8,254,0,0,0,0,0,0,0,231.8,766,0,0.000425759,0.000149383,0.00017292,0.0156326,0.00483974,0.000219498,0.000759048,0.000951805,-0.0241601,0.000259247,4.85228e-05,0.0152819,-0.0205496,0.00132565,0.00130657,-0.00764374
38,8,0,0,0,0,0,0,231.8,254,0,0,0,0,0,0,0,231.8,766,0,0.00153202,0.000759735,0.000478096,0.0165481,0.00327572,0.000791702,0.00121681,0.000379601,0.0741065,0.00102219,-0.000447388,0.0145953,-0.0212744,0.000562706,0.000886955,-0.00718597
38,9,0,0,0,0,0,0,231.8,254,0,0,0,0,0,0,0,231.8,766,0,0.00137943,7.30893e-05,0.00150806,0.017044,0.00403866,0.00113502,0.00102608,0.000684776,-0.0169122,0.000297394,0.000506287,0.0147479,-0.0207785,0.000639,0.00138287,-0.00775818
39,0,0,0,0,0,0,0,231.8,254,0,0,0,0,0,0,0,231.8,766,0,0.00130314,0.00110306,0.00139362,0.0171585,0.00640377,0.000829849,0.00121681,0.00076107,-0.0207269,0.00109848,0.00203217,0.0163501,-0.0210455,0.00136379,0.00187878,-0.00928406
39,1,0,0,0,0,0,0,231.8,254,0,0,0,0,0,0,0,231.8,766,0,0.00191349,0.000492706,0.000630684,0.01651,0.00823482,0.000753555,0.000263138,0.000341454,0.0891364,0.000144806,-0.000790711,0.014519,-0.0208167,-0.000162086,0.00058178,-0.0081778
39,2,0,0,0,0,0,0,231.8,254,0,0,0,0,0,0,0,231.8,766,0,6.14207e-06,0.00106491,0.00127918,0.0164337,0.00785336,0.00117317,0.00098793,0.000455895,-0.0148141,-0.00126663,0.000925903,0.0131457,-0.0209692,0.00155453,0.00195507,-0.00886444
39,3,0,0,0,0,0,0,231.8,254,0,0,0,0,0,0,0,231.8,766,0,0.00179905,0.000645294,0.000974007,0.0171203,0.00525936,0.000791702,0.000301285,0.000608482,-0.024389,0.000106659,0.000697021,0.0120776,-0.0213889,0.000524559,0.00111584,-0.00737671
39,4,0,0,0,0,0,0,231.8,254,0,0,0,0,0,0,0,231.8,766,0,0.000311318,0.00133194,0.000668831,0.0168914,0.00373348,0.00102058,0.00171272,0.000341454,0.0933707,0.000602569,0.00123108,0.0144046,-0.02013,0.000410118,0.00149731,-0.00787262
39,5,0,0,0,0,0,0,231.8,254,0,0,0,0,0,0,0,231.8,766,0,0.00115055,0.000836029,-0.000132256,0.0158615,0.00445827,-0.000238266,0.000949783,0.000875511,-0.0121056,0.000297394,0.000544433,0.0141375,-0.0220755,0.000600853,-0.00124928,-0.00974182
39,6,0,0,0,0,0,0,231.8,254,0,0,0,0,0,0,0,231.8,766,0,0.000921669,0.0012175,0.000592537,0.016777,0.00304684,0.000410232,0.000415726,0.0010281,-0.0578057,0.00132736,0.000201111,0.014786,-0.0205496,0.000448265,0.00058178,-0.0081015
39,7,0,0,0,0,0,0,231.8,254,0,0,0,0,0,0,0,231.8,766,0,-0.000260887,0.000263824,0.000783272,0.0158996,0.00422939,0.000791702,0.00114052,0.000799217,-0.0118005,-0.000351105,0.000697021,0.0177615,-0.0213889,0.00170712,0.0010014,-0.00733856
39,8,0,0,0,0,0,0,231.8,254,0,0,0,0,0,0,0,231.8,766,0,0.00130314,0.000988617,0.00135548,0.0168151,0.00606045,0.00128761,0.000873489,0.000303307,0.0300849,0.00106033,0.00123108,0.0198977,-0.02013,0.00105862,-0.000791511,-0.00943665
39,9,0,0,0,0,0,0,231.8,254,0,0,0,0,0,0,0,231.8,766,0,0.0005402,0.00106491,0.000592537,0.0172348,0.0073193,0.00132576,0.00102608,0.000455895,0.0512946,-0.000198517,0.00138367,0.0197451,-0.0203207,0.00155453,0.00195507,-0.00852112
40,0,0,0,0,0,0,0,231.8,254,0,0,0,0,0,0,0,231.8,766,0,0.000997963,0.000378265,0.000287361,0.0168914,0.00499233,0.000753555,0.0013694,0.000379601,-0.0559747,0.000564422,0.000277405,0.0152056,-0.0214651,0.00163082,0.00199322,-0.00848297
40,1,0,0,0,0,0,0,231.8,254,0,0,0,0,0,0,0,231.8,766,0,0.000807228,0.000836029,0.000745125,0.0160141,0.00316128,0.00121132,0.00156013,-0.000421486,0.040499,0.000411835,-0.000104065,0.0110858,-0.0209692,-0.000581703,0.000925102,-0.00821594
40,2,0,0,0,0,0,0,231.8,254,0,0,0,0,0,0,0,231.8,766,0,0.000692788,0.000225677,0.000401802,0.0159759,0.00300869,2.87627e-05,0.000873489,7.44248e-05,0.0456107,0.000564422,0.000239258,0.00559261,-0.0208929,0.000333824,0.000314751,-0.00813965
40,3,0,0,0,0,0,0,231.8,254,0,0,0,0,0,0,0,231.8,766,0,0.000578347,-0.000232087,0.000668831,0.0163574,0.00369534,0.000791702,0.00159828,0.000608482,-0.0533044,0.000945892,0.000315552,0.00593594,-0.0204733,-0.000200233,0.000543633,-0.0101996
40,4,0,0,0,0,0,0,231.8,254,0,0,0,0,0,0,0,231.8,766,0,-0.000833091,0.00137009,0.00143177,0.0167389,0.00525936,0.00128761,0.00060646,0.000112572,0.0472129,0.00189957,0.00248993,0.0136416,-0.0213889,0.00147823,0.00153545,-0.00875
40,5,0,0,0,0,0,0,231.8,254,0,0,0,0,0,0,0,231.8,766,0,0.000997963,0.000683441,0.00139362,0.0162811,0.00758633,0.00163094,0.00129311,0.000875511,0.0603355,0.000831451,0.000277405,0.0172274,-0.0195959,0.00136379,0.00119213,-0.00829224
40,6,0,0,0,0,0,0,231.8,254,0,0,0,0,0,0,0,231.8,766,0,0.000311318,0.000988617,0.000974007,0.0163955,0.00457272,0.00113502,0.00140755,0.000913658,-0.0578439,0.000411835,0.000429993,0.0146716,-0.0211218,0.00105862,0.00111584,-0.00852112
40,7,0,0,0,0,0,0,231.8,254,0,0,0,0,0,0,0,231.8,766,0,0.00126499,0.00117935,0.000706978,0.0156707,0.00689968,0.000486526,-0.000461655,0.000379601,0.0483955,0.000297394,0.000162964,0.0102465,-0.0199774,0.00113491,0.00103954,-0.00772003
40,8,0,0,0,0,0,0,231.8,254,0,0,0,0,0,0,0,231.8,766,0,0.000769082,0.00133194,0.00143177,0.0173492,0.00503048,0.000829849,0.000911636,0.00125698,0.0685752,0.000984039,0.00145996,0.0122302,-0.0204352,0.00163082,0.000162163,-0.00871185
40,9,0,0,0,0,0,0,231.8,254,0,0,0,0,0,0,0,231.8,766,0,0.000349465,0.000340118,0.000325508,0.0168914,0.00339016,0.000143204,0.000377579,-0.000154457,-0.067991,0.00132736,-0.000218506,0.0140612,-0.0205878,0.00025753,0.000162163,-0.00867371
41,0,0,0,0,0,0,0,231.8,254,0,0,0,0,0,0,0,231.8,766,0,4.4289e-05,-7.94986e-05,0.000745125,0.0163955,0.000834313,0.000448379,-8.0185e-05,0.000799217,-0.0256097,-0.000274811,0.000239258,0.0158541,-0.0215796,0.000448265,0.000734367,-0.00825409
41,1,0,0,0,0,0,0,231.8,254,0,0,0,0,0,0,0,231.8,766,0,-0.000375328,0.000492706,-0.000437431,0.0158996,0.00255093,0.00109688,-0.000309067,0.000150719,-0.00462883,0.000640716,0.000239258,0.0204699,-0.0194815,0.00102047,0.00115398,-0.00691895
41,2,0,0,0,0,0,0,231.8,254,0,0,0,0,0,0,0,231.8,766,0,0.000807228,0.000530853,0.00162251,0.0161666,0.00419125,0.00147835,-4.2038e-05,0.000341454,0.0683845,0.000945892,0.000697021,0.0216906,-0.0210837,0.00025753,0.00103954,-0.00813965
41,3,0,0,0,0,0,0,231.8,254,0,0,0,0,0,0,0,231.8,766,0,0.000807228,0.0011412,-1.78147e-05,0.0156326,0.00155911,0.000295792,0.000568314,0.000455895,-0.0193536,-0.00016037,0.000239258,0.0181811,-0.0207404,0.000944176,0.000238457,-0.00928406
41,4,0,0,0,0,0,0,231.8,254,0,0,0,0,0,0,0,231.8,766,0,0.000311318,3.49423e-05,0.000668831,0.0161666,0.00377163,0.000257645,-4.2038e-05,0.000913658,-0.0244653,0.000755157,-0.000409241,0.0160067,-0.02116,0.00025753,0.000619926,-0.007453
41,5,0,0,0,0,0,0,231.8,254,0,0,0,0,0,0,0,231.8,766,0,0.000273171,0.00152267,0.000821419,0.0166244,0.00571712,0.00140205,0.00129311,0.00076107,0.0754798,0.00132736,0.000506287,0.0158541,-0.0206641,0.000791588,0.000505486,-0.00833038
41,6,0,0,0,0,0,0,231.8,254,0,0,0,0,0,0,0,231.8,766,0,0.00107426,0.00102676,0.000897713,0.0173492,0.00762447,0.00121132,0.0013694,-0.000307045,-0.0192391,0.000182953,0.000849609,0.0181048,-0.0202063,0.00182156,0.000505486,-0.00813965
41,7,0,0,0,0,0,0,231.8,254,0,0,0,0,0,0,0,231.8,766,0,0.000692788,0.000645294,0.00101215,0.0167389,0.00464901,0.000867996,0.00121681,0.000875511,-0.0221383,-0.000198517,0.000658874,0.012192,-0.0221136,0.000486412,0.000543633,-0.00733856
41,8,0,0,0,0,0,0,231.8,254,0,0,0,0,0,0,0,231.8,766,0,-0.00136715,0.000225677,5.84793e-05,0.0157852,0.00533566,0.00147835,0.000415726,-0.000345192,0.0897468,0.000755157,-0.000867005,0.0103228,-0.0213126,0.000143089,0.000124016,-0.00840668
41,9,0,0,0,0,0,0,231.8,254,0,0,0,0,0,0,0,231.8,766,0,0.000692788,3.49423e-05,0.000516243,0.0155563,0.00583157,0.000448379,0.000568314,0.000646629,-0.0161492,0.000831451,-0.000104065,0.0116198,-0.0215033,-4.76455e-05,0.000162163,-0.00890259
42,0,0,0,0,0,0,0,231.8,254,0,0,0,0,0,0,0,231.8,766,0,0.000692788,0.000645294,0.000287361,0.0163955,0.0022076,0.00140205,0.00011055,0.000799217,-0.0249612,0.000106659,0.000315552,0.0121539,-0.0202826,0.00124935,-0.000448189,-0.00794891
42,1,0,0,0,0,0,0,231.8,254,0,0,0,0,0,0,0,231.8,766,0,0.000387612,0.000416412,0.00101215,0.0161285,0.00396236,0.000982437,0.000720901,0.000494041,0.0956596,0.000640716,0.000391846,0.0151294,-0.0210455,0.0012112,0.00107769,-0.00848297
42,2,0,0,0,0,0,0,231.8,254,0,0,0,0,0,0,0,231.8,766,0,0.000196877,0.00018753,0.00017292,0.0155944,0.00487789,0.000257645,-0.000919418,-0.000230751,-0.0123727,0.000182953,0.000239258,0.0125735,-0.0217322,6.67954e-05,9.57493e-06,-0.00844482
42,3,0,0,0,0,0,0,231.8,254,0,0,0,0,0,0,0,231.8,766,0,0.000578347,0.000988617,0.000287361,0.0159759,0.00491604,-8.56782e-05,0.000682754,0.000608482,-0.0599038,0.00102219,0.000925903,0.0141757,-0.0196722,0.00102047,-6.6719e-05,-0.00867371
42,4,0,0,0,0,0,0,231.8,254,0,0,0,0,0,0,0,231.8,766,0,-3.20049e-05,0.000225677,0.000325508,0.0168533,0.00468716,0.00109688,0.00060646,0.00026516,-0.0129067,0.000488129,-0.000180359,0.0132602,-0.0208548,0.000410118,0.00138287,-0.00855927
42,5,0,0,0,0,0,0,231.8,254,0,0,0,0,0,0,0,231.8,766,0,-0.000146446,0.000569,0.00135548,0.0163574,0.00625118,0.0014402,0.000911636,0.000455895,0.0271857,0.000907745,0.00104034,0.0144809,-0.0195578,0.000906029,0.00210766,-0.00821594
42,6,0,0,0,0,0,0,231.8,254,0,0,0,0,0,0,0,231.8,766,0,-0.000146446,0.000454559,0.00108845,0.0159759,0.00556454,0.000257645,-0.000118332,0.000150719,0.0530875,0.00147995,-0.000371094,0.0169223,-0.0210074,0.000677147,0.00115398,-0.00798706
42,7,0,0,0,0,0,0,231.8,254,0,0,0,0,0,0,0,231.8,766,0,0.000387612,0.00102676,0.0010503,0.0164718,0.00335201,0.00109688,0.000148697,0.000341454,-0.0601708,0.00125107,0.000925903,0.0179904,-0.0206641,0.000562706,0.000543633,-0.00844482
42,8,0,0,0,0,0,0,231.8,254,0,0,0,0,0,0,0,231.8,766,0,0.00126499,0.00095047,0.000706978,0.0171585,0.00457272,0.000715408,0.0013694,0.00121883,0.0401939,0.00121292,0.00096405,0.0195163,-0.0211218,0.00163082,0.00184063,-0.00760559
42,9,0,0,0,0,0,0,231.8,254,0,0,0,0,0,0,0,231.8,766,0,0.00107426,0.0012175,0.000974007,0.0169677,0.00453457,0.0014402,0.000224991,0.00133327,0.0472892,0.00140366,0.000735168,0.0177615,-0.0211218,0.000944176,0.00107769,-0.00733856
43,0,0,0,0,0,0,0,231.8,254,0,0,0,0,0,0,0,231.8,766,0,0.000463906,0.000530853,0.000401802,0.0165481,0.00705227,0.00102058,0.000186844,0.000341454,-0.0560509,0.00186142,0.000849609,0.0162356,-0.0209692,0.000448265,-0.000410042,-0.00741486
43,1,0,0,0,0,0,0,231.8,254,0,0,0,0,0,0,0,231.8,766,0,0.000120583,-7.94986e-05,0.000668831,0.0158233,0.00453457,0.000410232,0.000568314,-0.000421486,0.0458778,-0.000732575,1.03759e-05,0.0153964,-0.0210837,2.86484e-05,-0.000143013,-0.00920776
43,2,0,0,0,0,0,0,231.8,254,0,0,0,0,0,0,0,231.8,766,0,-0.000642356,0.000607147,9.66262e-05,0.0158233,0.00396236,0.000791702,0.000759048,-0.000421486,0.0622047,0.000678863,0.000429993,0.0171511,-0.0210455,0.000524559,0.00180248,-0.00852112
43,3,0,0,0,0,0,0,231.8,254,0,0,0,0,0,0,0,231.8,766,0,0.0005402,-0.000422821,9.66262e-05,0.0152893,0.00300869,0.000639114,0.000835342,0.000684776,-0.0601327,-0.000999603,0.000239258,0.0168841,-0.0209692,0.00102047,0.000505486,-0.010314
43,4,0,0,0,0,0,0,231.8,254,0,0,0,0,0,0,0,231.8,766,0,0.00122685,0.00190414,0.00158436,0.0157852,0.00209316,0.000715408,0.000911636,0.000150719,0.0480521,0.00140366,-0.00105774,0.0114672,-0.020397,0.000219383,-0.000638924,-0.00642303
43,5,0,0,0,0,0,0,231.8,254,0,0,0,0,0,0,0,231.8,766,0,-0.000642356,7.30893e-05,-0.000361137,0.0156326,0.00049099,-0.000123825,-0.000194626,0.000150719,0.068003,0.000411835,0.000506287,0.00749996,-0.0222662,0.0012112,-6.6719e-05,-0.0093985
43,6,0,0,0,0,0,0,231.8,254,0,0,0,0,0,0,0,231.8,766,0,0.0005402,0.000721588,0.000478096,0.0169677,0.00144466,0.000524673,-0.000118332,0.000303307,-0.071119,0.000564422,0.000925903,0.00852993,-0.0209692,0.000600853,0.000276604,-0.00886444
43,7,0,0,0,0,0,0,231.8,254,0,0,0,0,0,0,0,231.8,766,0,0.000349465,0.00106491,0.000630684,0.0162811,0.00182613,0.000600967,0.000453873,0.00026516,-0.0269067,0.000297394,0.000201111,0.00921657,-0.0213889,0.000562706,0.000772514,-0.00718597
43,8,0,0,0,0,0,0,231.8,254,0,0,0,0,0,0,0,231.8,766,0,-0.000184593,0.0011412,0.00101215,0.0161285,0.00373348,0.00056282,0.000682754,0.00076107,-0.00131004,0.000678863,0.000353699,0.0132983,-0.0203589,0.00159267,4.77219e-05,-0.00936035
43,9,0,0,0,0,0,0,231.8,254,0,0,0,0,0,0,0,231.8,766,0,0.000807228,0.00095047,2.03323e-05,0.0174255,0.00583157,0.00132576,0.0013694,0.000722923,0.133158,0.00109848,0.0015744,0.00997951,-0.0213889,0.00132565,0.00058178,-0.00863556
44,0,0,0,0,0,0,0,231.8,254,0,0,0,0,0,0,0,231.8,766,0,0.00015873,7.30893e-05,0.000783272,0.0157852,0.00712856,0.00094429,0.000301285,0.00106625,0.192858,0.000335541,0.000544433,0.0102465,-0.0209311,0.000982323,0.00069622,-0.00714783
44,1,0,0,0,0,0,0,231.8,254,0,0,0,0,0,0,0,231.8,766,0,0.000692788,0.00018753,0.000287361,0.0153274,0.00751003,0.000181351,-0.000881271,-1.86916e-06,0.152346,0.000373688,1.03759e-05,0.0151294,-0.0204733,0.000333824,-0.000371895,-0.00848297
44,2,0,0,0,0,0,0,231.8,254,0,0,0,0,0,0,0,231.8,766,0,-0.000642356,0.000797882,0.00093586,0.0158615,0.0073193,0.000600967,0.00117867,0.000951805,0.084864,0.000449982,0.000315552,0.0195163,-0.0200919,0.00124935,0.000848808,-0.0081015
44,3,0,0,0,0,0,0,231.8,254,0,0,0,0,0,0,0,231.8,766,0,0.0011124,0.00110306,0.000630684,0.017044,0.00808224,0.00159279,0.000873489,0.000303307,-0.101675,0.00140366,-0.00067627,0.020737,-0.0205115,0.0012875,0.00168804,-0.00936035
44,4,0,0,0,0,0,0,231.8,254,0,0,0,0,0,0,0,231.8,766,0,0.000273171,0.0012175,0.000897713,0.01651,0.00911221,0.000600967,0.00152199,-0.000307045,-0.0785958,-0.000503693,0.00104034,0.0204318,-0.0199774,0.000410118,0.00237469,-0.00760559
44,5,0,0,0,0,0,0,231.8,254,0,0,0,0,0,0,0,231.8,766,0,-7.01519e-05,0.00095047,-0.000590019,0.0155944,0.00800594,0.00056282,0.00110237,0.000188866,0.0457252,0.000564422,-0.0002948,0.0188678,-0.02116,0.000677147,0.000772514,-0.00859741
44,6,0,0,0,0,0,0,231.8,254,0,0,0,0,0,0,0,231.8,766,0,0.00107426,0.000149383,0.000249214,0.0160904,0.00495419,0.000295792,0.000835342,0.000150719,-0.0665795,0.000564422,0.000697021,0.0207751,-0.0204352,-0.000543556,0.000810661,-0.00905518
44,7,0,0,0,0,0,0,231.8,254,0,0,0,0,0,0,0,231.8,766,0,-0.000260887,0.000874176,0.00101215,0.0169677,0.00434383,0.000410232,0.00049202,-0.000268898,-0.0700127,0.00106033,-0.000142212,0.0166934,-0.0204733,0.000867882,0.000238457,-0.00913147
44,8,0,0,0,0,0,0,231.8,254,0,0,0,0,0,0,0,231.8,766,0,0.000692788,0.000454559,5.84793e-05,0.0161285,0.00464901,0.000486526,0.000263138,-0.000612221,0.0589622,0.000449982,0.000658874,0.0115435,-0.0223425,0.000143089,0.00069622,-0.00981812
44,9,0,0,0,0,0,0,231.8,254,0,0,0,0,0,0,0,231.8,766,0,8.2436e-05,0.000721588,0.000134773,0.0166626,0.00392422,0.00117317,0.000949783,-0.000230751,-0.0501,0.000907745,0.00107849,0.0126879,-0.0205496,0.00105862,-0.000333748,-0.00886444
45,0,0,0,0,0,0,0,231.8,254,0,0,0,0,0,0,0,231.8,766,0,0.00015873,0.000797882,0.00093586,0.0159759,0.00487789,0.00113502,0.00060646,0.000494041,-0.0919854,0.00147995,-0.000599976,0.018143,-0.0206641,0.000600853,0.00126843,-0.00821594
45,1,0,0,0,0,0,0,231.8,254,0,0,0,0,0,0,0,231.8,766,0,0.0005402,0.000912323,0.000439949,0.0161666,0.00274166,0.000295792,0.000453873,7.44248e-05,-0.0400292,0.00140366,0.00058258,0.0157016,-0.0211218,0.00140194,0.00107769,-0.00829224
45,2,0,0,0,0,0,0,231.8,254,0,0,0,0,0,0,0,231.8,766,0,4.4289e-05,0.000874176,0.000516243,0.0158996,0.00411495,0.000600967,0.000720901,-1.86916e-06,0.00681526,-0.000274811,0.00115479,0.0111239,-0.02116,0.000639,0.00119213,-0.00859741
45,3,0,0,0,0,0,0,231.8,254,0,0,0,0,0,0,0,231.8,766,0,0.000425759,0.0012175,0.00055439,0.0155182,0.00445827,0.000410232,-0.000194626,0.000646629,0.030886,0.000373688,0.000735168,0.00978878,-0.0209311,-0.000200233,0.000772514,-0.00871185
45,4,0,0,0,0,0,0,231.8,254,0,0,0,0,0,0,0,231.8,766,0,0.000883522,0.0017897,0.00154621,0.0172729,0.0047253,0.00132576,0.00110237,-0.00049778,-0.0739419,0.00117477,0.00195587,0.0131839,-0.0187949,0.00212673,-2.8572e-05,-0.00852112
45,5,0,0,0,0,0,0,231.8,254,0,0,0,0,0,0,0,231.8,766,0,-0.000260887,-0.000727997,0.00112659,0.0167389,0.00518307,0.00132576,0.00159828,0.000722923,0.0279868,-0.000274811,0.000315552,0.0109713,-0.0205496,0.0012112,0.00142101,-0.00852112
45,6,0,0,0,0,0,0,231.8,254,0,0,0,0,0,0,0,231.8,766,0,0.00153202,0.001866,0.000745125,0.0157852,0.00182613,0.000829849,0.000835342,0.000379601,0.0367988,0.000755157,0.000620727,0.00952175,-0.0200919,0.00117306,0.00115398,-0.00852112
45,7,0,0,0,0,0,0,231.8,254,0,0,0,0,0,0,0,231.8,766,0,0.000578347,0.000263824,0.000859566,0.0152893,0.000719872,0.000105057,0.000720901,0.000150719,-0.0624215,0.000144806,8.66698e-05,0.0114291,-0.0219611,-0.000543556,-0.000295601,-0.00836853
45,8,0,0,0,0,0,0,231.8,254,0,0,0,0,0,0,0,231.8,766,0,-0.000451622,0.00125565,0.0010503,0.0163192,0.000414696,0.000600967,0.000148697,-4.00161e-05,0.040499,-4.59291e-05,-0.000218506,0.0118487,-0.0209692,-0.000200233,0.00180248,-0.00905518
45,9,0,0,0,0,0,0,231.8,254,0,0,0,0,0,0,0,231.8,766,0,-3.20049e-05,0.000797882,0.00192768,0.0171203,0.000414696,0.000181351,0.000453873,-0.00106998,0.0562537,0.00106033,0.00149811,0.0116198,-0.0207404,0.000562706,0.0010014,-0.0103903
46,0,0,0,0,0,0,0,231.8,254,0,0,0,0,0,0,0,231.8,766,0,0.000349465,7.30893e-05,0.000668831,0.0160141,0.000414696,0.000982437,0.000301285,7.44248e-05,-0.0597894,0.000373688,-0.000104065,0.0142138,-0.0207022,0.000867882,0.000543633,-0.00916962
46,1,0,0,0,0,0,0,231.8,254,0,0,0,0,0,0,0,231.8,766,0,0.000883522,0.00159897,0.000974007,0.0159759,0.00339016,0.00113502,0.00190346,0.00076107,0.0483955,-0.000198517,0.00130737,0.0108569,-0.0199011,0.00140194,0.00199322,-0.00859741
46,2,0,0,0,0,0,0,231.8,254,0,0,0,0,0,0,0,231.8,766,0,0.00115055,7.30893e-05,0.000974007,0.0170822,0.00728115,0.000372085,0.00156013,0.00140957,0.0694526,0.000526275,0.000162964,0.0184863,-0.019863,0.00147823,0.00123028,-0.00894073
46,3,0,0,0,0,0,0,231.8,254,0,0,0,0,0,0,0,231.8,766,0,0.000921669,0.000111236,0.000783272,0.0164337,0.00709042,0.00121132,0.00133125,0.000799217,-0.0655495,0.00147995,0.000697021,0.0163501,-0.0205115,0.000600853,0.0022221,-0.0075293
46,4,0,0,0,0,0,0,231.8,254,0,0,0,0,0,0,0,231.8,766,0,0.00164646,0.00117935,0.000363655,0.0175399,0.00812038,-0.000200119,0.00156013,0.000494041,-0.0218331,0.000869598,0.00142181,0.0152819,-0.0205115,0.000181236,0.0010014,-0.00901703
46,5,0,0,0,0,0,0,231.8,254,0,0,0,0,0,0,0,231.8,766,0,0.000273171,0.00095047,0.000859566,0.0158615,0.00522121,0.00132576,0.00106422,-0.000574074,-0.00104301,0.000564422,0.000162964,0.0178759,-0.0195959,0.000867882,0.000886955,-0.00833038
46,6,0,0,0,0,0,0,231.8,254,0,0,0,0,0,0,0,231.8,766,0,8.2436e-05,0.000912323,-1.78147e-05,0.0164337,0.00556454,0.00117317,0.000530167,0.00110439,0.0725425,-0.000885163,0.000620727,0.0161593,-0.0204352,0.00113491,0.000619926,-0.00840668
46,7,0,0,0,0,0,0,231.8,254,0,0,0,0,0,0,0,231.8,766,0,0.00122685,0.000301971,0.00112659,0.0168151,0.00522121,0.00121132,0.00129311,-1.86916e-06,-0.0143945,0.00109848,0.00096405,0.0172274,-0.0210837,0.0012875,8.58689e-05,-0.00829224
46,8,0,0,0,0,0,0,231.8,254,0,0,0,0,0,0,0,231.8,766,0,0.00126499,0.00133194,0.000325508,0.0167389,0.00655636,0.00124947,0.00098793,0.00190548,-0.0186288,0.000640716,0.0010022,0.0155108,-0.0191763,0.00201229,0.000963249,-0.00768188
46,9,0,0,0,0,0,0,231.8,254,0,0,0,0,0,0,0,231.8,766,0,-3.20049e-05,0.000301971,0.000401802,0.015747,0.00335201,-9.38424e-06,0.00114052,0.00156216,0.0800193,0.000945892,0.00104034,0.0120013,-0.0222281,0.000562706,0.000467339,-0.0093222
47,0,0,0,0,0,0,0,231.8,254,0,0,0,0,0,0,0,231.8,766,0,0.000387612,0.000378265,0.000134773,0.0156707,0.00239834,0.000791702,0.00060646,0.000684776,-0.012449,0.00140366,-0.000523682,0.0151675,-0.0210837,-0.000390968,0.00123028,-0.0075293
47,1,0,0,0,0,0,0,231.8,254,0,0,0,0,0,0,0,231.8,766,0,0.000769082,0.000836029,0.000630684,0.0168151,0.00010952,0.00109688,0.00190346,-7.81631e-05,-0.0161874,3.03648e-05,-0.000180359,0.0134127,-0.0207785,0.00117306,0.000848808,-0.00890259
47,2,0,0,0,0,0,0,231.8,254,0,0,0,0,0,0,0,231.8,766,0,0.0005402,-0.00019394,0.00108845,0.0168914,0.000376549,0.000715408,0.00144569,0.000379601,0.0946677,0.000755157,0.000429993,0.010361,-0.018833,0.00136379,0.000734367,-0.00882629
47,3,0,0,0,0,0,0,231.8,254,0,0,0,0,0,0,0,231.8,766,0,0.000578347,0.000645294,0.000745125,0.0160522,0.000414696,0.00102058,0.000682754,0.00076107,-0.0107323,-0.000732575,-0.000218506,0.0117343,-0.0219611,0.000791588,0.00103954,-0.0100089
47,4,0,0,0,0,0,0,231.8,254,0,0,0,0,0,0,0,231.8,766,0,0.00164646,0.000683441,0.00124104,0.0164718,0.00277981,0.00178352,0.00106422,0.000875511,-0.0183999,0.00125107,-0.000142212,0.0139849,-0.020397,0.00113491,0.00164989,-0.00730042
47,5,0,0,0,0,0,0,231.8,254,0,0,0,0,0,0,0,231.8,766,0,0.000769082,0.00117935,0.000897713,0.0154037,-0.00195042,0.000829849,0.000759048,0.000570335,0.099932,0.000907745,0.000887756,0.0174945,-0.020397,0.000486412,0.00115398,-0.00875
47,6,0,0,0,0,0,0,231.8,254,0,0,0,0,0,0,0,231.8,766,0,0.00157017,0.000569,0.000439949,0.0160141,-0.000424538,-0.000123825,0.000339432,0.000722923,-0.0081002,0.000449982,0.000277405,0.0186007,-0.0218466,0.000829735,-6.6719e-05,-0.0101996
47,7,0,0,0,0,0,0,231.8,254,0,0,0,0,0,0,0,231.8,766,0,0.00103611,0.00148453,0.00120289,0.0159378,-0.00149265,0.000333939,0.000339432,-0.00011631,-0.0535332,0.000984039,-6.59181e-05,0.0160067,-0.0207022,0.000829735,0.0010014,-0.0093985
47,8,0,0,0,0,0,0,231.8,254,0,0,0,0,0,0,0,231.8,766,0,-0.000375328,-0.000232087,0.000325508,0.0153274,-0.00263706,0.000295792,0.000682754,0.000684776,-0.00832909,-0.000770722,-2.77711e-05,0.0153582,-0.0215414,0.000104942,0.00180248,-0.00897888
47,9,0,0,0,0,0,0,231.8,254,0,0,0,0,0,0,0,231.8,766,0,0.00179905,-4.13517e-05,0.00124104,0.0164718,-0.0015308,0.00121132,0.00144569,0.00076107,0.0325263,0.000640716,-2.77711e-05,0.0156634,-0.0202826,0.00109676,0.00111584,-0.00794891
48,0,0,0,0,0,0,0,231.8,254,0,0,0,0,0,0,0,231.8,766,0,0.000311318,-0.000346527,0.0016988,0.0166244,-0.00248447,0.00113502,0.00186531,0.000684776,0.054499,0.000297394,0.00046814,0.0188678,-0.0205878,0.00147823,0.00138287,-0.00737671
48,1,0,0,0,0,0,0,231.8,254,0,0,0,0,0,0,0,231.8,766,0,0.0005402,3.49423e-05,0.000630684,0.015213,-0.00481144,0.000143204,0.000339432,-1.86916e-06,-0.0546395,0.0002211,0.00046814,0.0166934,-0.021694,0.000600853,0.00123028,-0.0100851
48,2,0,0,0,0,0,0,231.8,254,0,0,0,0,0,0,0,231.8,766,0,0.00126499,-0.000727997,0.000325508,0.0155182,-0.00393406,-0.000352707,0.000377579,0.000303307,0.0429404,0.000335541,-0.000180359,0.0145572,-0.0215414,-0.000734291,0.00111584,-0.0081778
48,3,0,0,0,0,0,0,231.8,254,0,0,0,0,0,0,0,231.8,766,0,0.000845375,0.000454559,0.00143177,0.0164718,-0.00320927,0.000753555,0.00110237,-0.000230751,0.0504173,0.00102219,0.000735168,0.0169604,-0.0203589,0.00113491,0.00069622,-0.00760559
48,4,0,0,0,0,0,0,231.8,254,0,0,0,0,0,0,0,231.8,766,0,0.000692788,-0.000232087,0.00112659,0.0163955,-0.00343815,0.000677261,0.00133125,0.0010281,-0.0514733,0.00140366,0.00111664,0.0159304,-0.0208929,0.0012112,0.00149731,-0.00871185
48,5,0,0,0,0,0,0,231.8,254,0,0,0,0,0,0,0,231.8,766,0,8.2436e-05,-0.000499115,0.000211067,0.0150604,-0.00149265,0.000600967,0.000873489,-0.000268898,0.0490821,0.00102219,-0.000599976,0.0114672,-0.0192526,0.00102047,-6.6719e-05,-0.00813965
48,6,0,0,0,0,0,0,231.8,254,0,0,0,0,0,0,0,231.8,766,0,0.000730935,0.000797882,0.000249214,0.0156707,0.00213131,6.69097e-05,-0.000232773,0.000455895,0.0626624,-0.00141922,0.00058258,0.0137179,-0.0220755,0.00025753,0.00134472,-0.00947479
48,7,0,0,0,0,0,0,231.8,254,0,0,0,0,0,0,0,231.8,766,0,-7.01519e-05,0.000759735,0.000630684,0.0148315,-8.12148e-05,0.00105873,0.000415726,0.000417748,-0.0568902,-0.000236664,0.000162964,0.0145572,-0.0205496,0.00113491,0.00138287,-0.00722412
48,8,0,0,0,0,0,0,231.8,254,0,0,0,0,0,0,0,231.8,766,0,0.000616494,-7.94986e-05,0.000363655,0.0152893,0.00140652,0.000181351,0.00060646,0.000989952,0.0496925,0.000373688,-0.000104065,0.0166171,-0.0207785,0.00151638,0.00115398,-0.00947479
48,9,0,0,0,0,0,0,231.8,254,0,0,0,0,0,0,0,231.8,766,0,0.000502053,-0.00133835,0.000287361,0.0161285,0.00449642,0.000677261,0.00129311,0.000646629,0.0687278,-0.000923309,0.00142181,0.0174945,-0.0210455,0.00109676,0.000848808,-0.00947479
49,0,0,0,0,0,0,0,231.8,254,0,0,0,0,0,0,0,231.8,766,0,0.000845375,-0.000232087,0.000401802,0.017044,0.00506863,0.00113502,0.00106422,0.00076107,-0.0679147,-0.000808869,0.000391846,0.0189059,-0.0202444,0.00102047,0.000848808,-0.00813965
49,1,0,0,0,0,0,0,231.8,254,0,0,0,0,0,0,0,231.8,766,0,0.000463906,0.000530853,0.00120289,0.0156707,0.00503048,0.000486526,0.000186844,0.000722923,-0.0245034,-4.59291e-05,0.000773315,0.0135272,-0.0214651,0.000639,0.000848808,-0.00966553
49,2,0,0,0,0,0,0,231.8,254,0,0,0,0,0,0,0,231.8,766,0,0.000387612,-3.20468e-06,0.00135548,0.0162048,0.00655636,0.000257645,0.000644607,0.00026516,-0.00417107,0.00132736,0.000429993,0.014252,-0.0203589,0.000333824,0.000238457,-0.00844482
49,3,0,0,0,0,0,0,231.8,254,0,0,0,0,0,0,0,231.8,766,0,0.00015873,0.000149383,0.000287361,0.0155944,0.00701412,0.000486526,0.000873489,-0.000154457,0.0715507,-0.000122223,0.000124817,0.0157397,-0.0222662,-0.000467262,-0.00018116,-0.00833038
49,4,0,0,0,0,0,0,231.8,254,0,0,0,0,0,0,0,231.8,766,0,0.00137943,0.000225677,0.000592537,0.0165481,0.00720486,0.000600967,0.00213234,0.000532188,-0.0186669,0.000411835,0.000697021,0.0162738,-0.0195959,0.00151638,0.00107769,-0.00787262
49,5,0,0,0,0,0,0,231.8,254,0,0,0,0,0,0,0,231.8,766,0,0.000387612,0.000416412,0.000592537,0.0170059,0.00804409,0.000829849,0.000759048,0.000150719,-0.0235497,0.000259247,8.66698e-05,0.0154345,-0.0199011,0.000753441,0.00153545,-0.00733856
49,6,0,0,0,0,0,0,231.8,254,0,0,0,0,0,0,0,231.8,766,0,-0.000527916,0.000378265,2.03323e-05,0.0152511,0.0118588,0.000295792,-4.2038e-05,0.000989952,0.0745643,0.000259247,8.66698e-05,0.013489,-0.0219992,0.000143089,0.000810661,-0.00844482
49,7,0,0,0,0,0,0,231.8,254,0,0,0,0,0,0,0,231.8,766,0,0.000273171,-0.00019394,0.000287361,0.0161285,0.00777706,2.87627e-05,0.000835342,-0.00011631,-0.019201,0.000449982,0.000544433,0.0122302,-0.0212363,-0.000429115,0.000772514,-0.00836853
49,8,0,0,0,0,0,0,231.8,254,0,0,0,0,0,0,0,231.8,766,0,-3.20049e-05,0.000836029,0.000974007,0.0158233,0.00781521,0.000867996,0.00140755,0.00076107,-0.0228631,0.000526275,0.00058258,0.00830105,-0.02013,0.00105862,0.000391045,-0.00813965
49,9,0,0,0,0,0,0,231.8,254,0,0,0,0,0,0,0,231.8,766,0,0.0011887,0.000454559,0.00101215,0.017044,0.00941738,0.000372085,0.00106422,0.00201992,0.0901283,0.000297394,0.000735168,0.00646999,-0.0207785,0.000295677,0.00176434,-0.00905518
50,0,0,0,0,0,0,0,231.8,254,0,0,0,0,0,0,0,231.8,766,0,0.000502053,0.000607147,0.000668831,0.0171585,0.00842556,0.00155464,0.00129311,-0.000268898,-0.0163018,0.000984039,0.00058258,0.00780514,-0.0210455,0.000715294,0.00107769,-0.00737671
50,1,0,0,0,0,0,0,231.8,254,0,0,0,0,0,0,0,231.8,766,0,0.000845375,0.000988617,0.00093586,0.0162048,0.00857815,0.000867996,0.000644607,0.000875511,-0.0246178,0.000106659,0.000735168,0.00624111,-0.0210455,0.000677147,0.00130657,-0.00867371
50,2,0,0,0,0,0,0,231.8,254,0,0,0,0,0,0,0,231.8,766,0,0.00141758,0.00133194,0.000821419,0.0162429,0.00651821,0.000486526,0.000720901,0.00076107,0.0940192,-0.000694428,-0.0002948,0.00875881,-0.0210074,0.000600853,-2.8572e-05,-0.00859741
50,3,0,0,0,0,0,0,231.8,254,0,0,0,0,0,0,0,231.8,766,0,-0.000184593,0.000454559,0.000401802,0.0163574,0.00907406,-0.000581589,0.000377579,-1.86916e-06,-0.0131738,0.000640716,0.000315552,0.0169223,-0.021427,0.000104942,-0.000410042,-0.00844482
50,4,0,0,0,0,0,0,231.8,254,0,0,0,0,0,0,0,231.8,766,0,0.0011124,0.000454559,0.000668831,0.0180359,0.0103711,0.00094429,0.00102608,0.000455895,-0.0605141,0.000869598,0.00104034,0.0209277,-0.0226096,0.000143089,0.000505486,-0.00813965
50,5,0,0,0,0,0,0,231.8,254,0,0,0,0,0,0,0,231.8,766,0,0.000578347,0.000874176,0.00055439,0.0161285,0.00556454,0.00113502,0.000453873,0.000188866,-0.0119912,0.000602569,0.000544433,0.0209277,-0.0203589,0.00102047,0.00138287,-0.00775818
50,6,0,0,0,0,0,0,231.8,254,0,0,0,0,0,0,0,231.8,766,0,-0.000451622,3.49423e-05,0.000211067,0.0160522,0.00426754,0.000600967,0.000415726,0.000532188,0.0308479,0.000602569,0.000735168,0.0130694,-0.0209692,0.00105862,0.00153545,-0.00924591
50,7,0,0,0,0,0,0,231.8,254,0,0,0,0,0,0,0,231.8,766,0,0.000769082,0.000797882,0.000516243,0.0165863,0.00453457,0.00102058,0.000720901,0.000951805,0.0511039,0.00117477,-0.000943298,0.0108569,-0.0211981,0.00124935,0.0010014,-0.00779633
50,8,0,0,0,0,0,0,231.8,254,0,0,0,0,0,0,0,231.8,766,0,0.000769082,0.00106491,0.000897713,0.0167007,0.00483974,0.000410232,0.00125496,0.000799217,-0.0581872,0.00121292,0.00184143,0.0157397,-0.0201682,0.00163082,0.00164989,-0.0075293
50,9,0,0,0,0,0,0,231.8,254,0,0,0,0,0,0,0,231.8,766,0,-0.000108299,7.30893e-05,-0.000170403,0.0162048,0.0048016,0.000410232,-0.00111015,0.000646629,0.0432456,0.000526275,0.00172699,0.0144046,-0.0213507,0.000448265,-0.000448189,-0.00909332
51,0,0,0,0,0,0,0,231.8,254,0,0,0,0,0,0,0,231.8,766,0,-0.000146446,0.000416412,0.000821419,0.0163192,0.00464901,0.000677261,0.00098793,-0.000230751,0.0471748,0.00113663,-0.000142212,0.01944,-0.0203207,0.000410118,-0.000333748,-0.00653748
51,1,0,0,0,0,0,0,231.8,254,0,0,0,0,0,0,0,231.8,766,0,0.000578347,-0.000384674,0.00017292,0.0162048,0.00747189,0.000982437,0.000759048,0.000303307,-0.0570046,0.000602569,-0.000638123,0.0193637,-0.02116,0.00197414,0.0015736,-0.00768188
51,2,0,0,0,0,0,0,231.8,254,0,0,0,0,0,0,0,231.8,766,0,0.000883522,0.000874176,5.84793e-05,0.0173874,0.007243,0.00102058,0.00178902,0.00110439,0.046984,0.00128921,0.00153625,0.0211184,-0.0199393,0.00124935,0.000352898,-0.00710968
51,3,0,0,0,0,0,0,231.8,254,0,0,0,0,0,0,0,231.8,766,0,0.000730935,0.00102676,0.00124104,0.0162811,0.00380978,0.00056282,7.24029e-05,0.000112572,0.0609077,0.00132736,0.00130737,0.0194018,-0.0206259,0.00166897,0.000467339,-0.00730042
51,4,0,0,0,0,0,0,231.8,254,0,0,0,0,0,0,0,231.8,766,0,0.00115055,0.000988617,0.000897713,0.0167389,0.00274166,0.00094429,-0.000194626,0.00144772,-0.0597512,0.000144806,0.000391846,0.0157397,-0.0204352,0.000448265,0.00161175,-0.00897888
51,5,0,0,0,0,0,0,231.8,254,0,0,0,0,0,0,0,231.8,766,0,-7.01519e-05,0.000683441,0.000592537,0.0165481,0.00297054,0.00102058,0.000415726,-0.000574074,0.0482429,0.00109848,0.000391846,0.0182574,-0.0197104,6.67954e-05,-0.000829658,-0.00840668
51,6,0,0,0,0,0,0,231.8,254,0,0,0,0,0,0,0,231.8,766,0,0.000845375,0.001866,0.00116474,0.0167007,0.00514492,0.00140205,0.000835342,0.00133327,0.0687278,0.000144806,0.000697021,0.0193255,-0.0191382,0.00124935,0.0015736,-0.00913147
51,7,0,0,0,0,0,0,231.8,254,0,0,0,0,0,0,0,231.8,766,0,0.00149387,-0.000613556,0.000745125,0.0168151,0.00781521,0.000867996,0.000797195,0.000455895,-0.0706231,-0.000618134,0.000544433,0.015816,-0.0204352,0.000906029,0.000467339,-0.00936035
