Devices
1000
,,North - Force,,,North - Moment,,,North - CoP,,,South - Force,,,South - Moment,,,South - CoP,,,EMG - Voltage,,,,,,,,,,,,,,,,
Frame,Sub Frame,Fx,Fy,Fz,Mx,My,Mz,Cx,Cy,Cz,Fx,Fy,Fz,Mx,My,Mz,Cx,Cy,Cz,1,2,3,TA,5,Sol,7,8,VL,RF,BF,GlutMed,GlutMax,14,MedGast,16
,,N,N,N,N.mm,N.mm,N.mm,mm,mm,mm,N,N,N,N.mm,N.mm,N.mm,mm,mm,mm,V,V,V,V,V,V,V,V,V,V,V,V,V,V,V,V
1,0,0,0,0,0,0,0,231.8,254,0,0,0,0,0,0,0,231.8,766,0,0.000807228,3.49423e-05,0.00116474,0.0165481,0.00384792,0.00163094,0.000644607,0.000379601,-0.0327813,0.000907745,-0.000104065,0.015549,-0.0196722,0.00155453,0.000543633,-0.00829224
1,1,0,0,0,0,0,0,231.8,254,0,0,0,0,0,0,0,231.8,766,0,0.000349465,0.000263824,0.000516243,0.0161666,0.00705227,0.000677261,0.000453873,0.000455895,0.0886024,-0.000503693,0.000391846,0.0139087,-0.0210837,0.000333824,0.00275616,-0.0099707
1,2,0,0,0,0,0,0,231.8,254,0,0,0,0,0,0,0,231.8,766,0,0.000845375,0.00152267,0.00150806,0.0159378,0.00964626,0.0014402,0.000835342,0.000341454,0.0051368,0.00109848,1.03759e-05,0.0139849,-0.0194434,0.00159267,-0.000143013,-0.007453
1,3,0,0,0,0,0,0,231.8,254,0,0,0,0,0,0,0,231.8,766,0,0.000730935,0.000225677,0.000325508,0.017044,0.0107144,0.00105873,0.000530167,0.000150719,-0.0604379,-0.000579987,-0.000828858,0.0151675,-0.0203589,0.000753441,0.00145916,-0.00833038
1,4,0,0,0,0,0,0,231.8,254,0,0,0,0,0,0,0,231.8,766,0,0.000502053,0.000301971,0.000592537,0.0164718,0.00899776,0.00121132,0.00098793,0.00118069,-0.0111901,0.000259247,0.00096405,0.0187152,-0.0205496,0.000791588,0.00058178,-0.00833038
1,5,0,0,0,0,0,0,231.8,254,0,0,0,0,0,0,0,231.8,766,0,0.000654641,0.000378265,0.00127918,0.0159378,0.00701412,0.00109688,0.00117867,0.000608482,0.0204337,0.000335541,0.000239258,0.0143283,-0.0207785,0.00113491,0.000810661,-0.00916962
1,6,0,0,0,0,0,0,231.8,254,0,0,0,0,0,0,0,231.8,766,0,0.000235024,-0.000422821,-0.00131481,0.0155182,0.00445827,-4.75312e-05,-0.000804977,0.000150719,0.0565971,0.0002211,-0.000142212,0.0149005,-0.0211981,0.000295677,0.000314751,-0.00829224
1,7,0,0,0,0,0,0,231.8,254,0,0,0,0,0,0,0,231.8,766,0,-0.000146446,3.49423e-05,0.000249214,0.0161285,0.00560268,0.000715408,0.00098793,-1.86916e-06,-0.0518929,-0.000274811,4.85228e-05,0.0138705,-0.0203207,0.00117306,0.000314751,-0.00958923
1,8,0,0,0,0,0,0,231.8,254,0,0,0,0,0,0,0,231.8,766,0,-0.000413475,0.00018753,0.000363655,0.0157089,0.00186428,0.000829849,0.00049202,0.000875511,0.0278724,0.0002211,-0.000447388,0.0118869,-0.0212744,0.00124935,0.000619926,-0.00779633
1,9,0,0,0,0,0,0,231.8,254,0,0,0,0,0,0,0,231.8,766,0,0.000845375,0.000149383,-9.41086e-05,0.0153656,-0.000653419,0.000333939,0.000263138,-0.000268898,0.055796,-8.40761e-05,-0.000409241,0.0142138,-0.0221518,0.000944176,0.000276604,-0.00928406
2,0,0,0,0,0,0,0,231.8,254,0,0,0,0,0,0,0,231.8,766,0,0.00015873,0.000492706,5.84793e-05,0.0160141,0.000452843,6.69097e-05,0.000263138,-0.000307045,-0.0491463,-0.00054184,0.000162964,0.0162738,-0.0208167,0.000562706,0.000658073,-0.00859741
2,1,0,0,0,0,0,0,231.8,254,0,0,0,0,0,0,0,231.8,766,0,-0.000680503,-0.000422821,-5.59617e-05,0.0152511,-0.00076786,0.000143204,0.000377579,7.44248e-05,0.0334418,-0.000122223,-0.000409241,0.0148242,-0.0216559,-0.000200233,0.000925102,-0.00825409
2,2,0,0,0,0,0,0,231.8,254,0,0,0,0,0,0,0,231.8,766,0,0.00145573,7.30893e-05,0.00101215,0.0155944,-0.00198856,0.00094429,0.00106422,7.44248e-05,0.0699104,0.000907745,0.000544433,0.0129168,-0.0205878,0.00151638,0.00103954,-0.0081015
2,3,0,0,0,0,0,0,231.8,254,0,0,0,0,0,0,0,231.8,766,0,0.00103611,0.0012175,0.00120289,0.0161285,-0.00332371,0.00117317,0.000873489,0.00129513,-0.0528466,0.000335541,0.000201111,0.0110476,-0.0202444,0.00025753,0.00058178,-0.007453
2,4,0,0,0,0,0,0,231.8,254,0,0,0,0,0,0,0,231.8,766,0,-0.000566063,-0.000613556,-0.000170403,0.0158615,-0.00332371,0.000105057,-3.89107e-06,0.000150719,0.0329459,0.00071701,-0.000867005,0.0108187,-0.0215796,0.000524559,0.00020031,-0.00897888
2,5,0,0,0,0,0,0,231.8,254,0,0,0,0,0,0,0,231.8,766,0,0.000349465,-0.000499115,0.000325508,0.0157852,0.000719872,0.000791702,0.000797195,-1.86916e-06,0.077349,0.0002211,1.03759e-05,0.0094836,-0.0216177,0.000600853,0.000429192,-0.00958923
2,6,0,0,0,0,0,0,231.8,254,0,0,0,0,0,0,0,231.8,766,0,0.000463906,0.00110306,-5.59617e-05,0.0163955,-0.000806007,-0.000238266,-0.000614243,0.00152401,-0.0599801,0.000182953,0.00046814,0.00971249,-0.0213507,0.00109676,0.00103954,-0.00928406
2,7,0,0,0,0,0,0,231.8,254,0,0,0,0,0,0,0,231.8,766,0,0.000349465,0.000530853,0.00055439,0.0158233,0.000376549,0.00109688,0.00049202,0.00026516,-0.0289285,0.000984039,-0.000180359,0.0117343,-0.0202063,0.000867882,0.00058178,-0.00852112
2,8,0,0,0,0,0,0,231.8,254,0,0,0,0,0,0,0,231.8,766,0,8.2436e-05,0.000797882,-0.000513725,0.0163955,0.00136837,0.000105057,-4.2038e-05,0.00163845,-0.00691765,0.000297394,-0.000371094,0.0118106,-0.0200919,0.00105862,0.00191692,-0.00829224
2,9,0,0,0,0,0,0,231.8,254,0,0,0,0,0,0,0,231.8,766,0,0.000235024,0.000530853,0.000401802,0.01651,0.00129208,0.000486526,0.00114052,0.000989952,0.0603355,0.00071701,0.00046814,0.00910213,-0.0203207,0.00132565,0.000734367,-0.00825409
3,0,0,0,0,0,0,0,231.8,254,0,0,0,0,0,0,0,231.8,766,0,0.00164646,0.000607147,0.000363655,0.0162048,-0.000500832,0.00124947,0.00148384,0.000684776,-0.00466698,0.000984039,0.000925903,0.0134509,-0.019863,0.000829735,0.000391045,-0.00848297
3,1,0,0,0,0,0,0,231.8,254,0,0,0,0,0,0,0,231.8,766,0,0.000425759,0.000836029,0.000897713,0.0168914,7.13731e-05,0.000600967,0.00133125,0.00118069,-0.0312173,0.00128921,0.000277405,0.0144046,-0.0199011,0.00140194,0.00252728,-0.00794891
3,2,0,0,0,0,0,0,231.8,254,0,0,0,0,0,0,0,231.8,766,0,0.0005402,0.00148453,0.00120289,0.0171966,-0.00179783,0.00136391,0.000949783,-0.000230751,0.071894,0.00117477,0.00046814,0.0137179,-0.0205115,0.00144009,0.00103954,-0.00928406
3,3,0,0,0,0,0,0,231.8,254,0,0,0,0,0,0,0,231.8,766,0,-0.00022274,0.00125565,-9.41086e-05,0.0163192,-0.000157509,0.000295792,0.00106422,0.00118069,-0.00722282,0.0002211,0.000239258,0.0172274,-0.0197104,0.0012875,0.00210766,-0.00829224
3,4,0,0,0,0,0,0,231.8,254,0,0,0,0,0,0,0,231.8,766,0,0.000692788,0.000836029,0.000478096,0.0164718,0.00010952,0.000372085,0.000263138,0.000608482,-0.0292718,0.000411835,0.000201111,0.0160067,-0.0205496,0.000753441,0.0010014,-0.00871185
3,5,0,0,0,0,0,0,231.8,254,0,0,0,0,0,0,0,231.8,766,0,-0.000146446,0.000340118,-1.78147e-05,0.0159759,-0.00149265,0.000982437,0.00125496,0.000150719,0.0844444,0.00136551,0.00046814,0.017113,-0.0203589,0.0012112,-0.000143013,-0.00813965
3,6,0,0,0,0,0,0,231.8,254,0,0,0,0,0,0,0,231.8,766,0,0.00103611,0.000874176,0.000859566,0.0166626,-0.000195656,0.00102058,0.000949783,0.000532188,-0.000127487,0.000449982,0.00107849,0.0155871,-0.019863,0.00117306,4.77219e-05,-0.00798706
3,7,0,0,0,0,0,0,231.8,254,0,0,0,0,0,0,0,231.8,766,0,0.000997963,-0.000613556,-0.000361137,0.0162048,-0.00305668,0.000105057,0.000720901,0.000951805,-0.0347268,-0.00016037,0.00168884,0.0149005,-0.0208929,0.000562706,0.00145916,-0.00916962
3,8,0,0,0,0,0,0,231.8,254,0,0,0,0,0,0,0,231.8,766,0,0.000273171,0.000492706,-1.78147e-05,0.0159759,-0.00607029,0.000486526,-4.2038e-05,-0.000535927,0.0883735,0.000182953,-0.000180359,0.0144427,-0.0208929,2.86484e-05,0.000429192,-0.00901703
3,9,0,0,0,0,0,0,231.8,254,0,0,0,0,0,0,0,231.8,766,0,0.000349465,0.000301971,0.000592537,0.0152893,-0.00427738,-0.00103935,-0.000385361,0.000608482,0.00445015,-0.000274811,1.03759e-05,0.0131076,-0.0216559,-0.000276527,8.58689e-05,-0.00920776
4,0,0,0,0,0,0,0,231.8,254,0,0,0,0,0,0,0,231.8,766,0,0.00015873,-3.20468e-06,2.03323e-05,0.0169296,-0.00370518,0.000639114,7.24029e-05,-0.000192604,-0.0633752,0.00201401,0.000315552,0.0169604,-0.0208548,0.000639,0.000658073,-0.0100089
4,1,0,0,0,0,0,0,231.8,254,0,0,0,0,0,0,0,231.8,766,0,0.00130314,0.000645294,0.00093586,0.0162429,-0.00248447,0.000715408,0.000911636,0.000532188,-0.0121438,0.000411835,0.000773315,0.0162356,-0.0204733,0.000944176,0.00199322,-0.00985626
4,2,0,0,0,0,0,0,231.8,254,0,0,0,0,0,0,0,231.8,766,0,0.00015873,-0.00103317,0.000363655,0.0163574,-0.00179783,0.000105057,-8.0185e-05,0.000455895,0.0197852,-0.000274811,0.000162964,0.0161212,-0.0208929,0.000562706,0.000391045,-0.00787262
4,3,0,0,0,0,0,0,231.8,254,0,0,0,0,0,0,0,231.8,766,0,0.000463906,0.0011412,9.66262e-05,0.0146789,0.00190243,2.87627e-05,-3.89107e-06,7.44248e-05,0.0582374,-0.000122223,-0.000104065,0.0166171,-0.0218466,0.000486412,0.000467339,-0.00936035
4,4,0,0,0,0,0,0,231.8,254,0,0,0,0,0,0,0,231.8,766,0,0.000959816,-7.94986e-05,-0.000170403,0.0158615,0.00354275,-0.000123825,0.000682754,-0.000268898,-0.054258,0.000373688,0.00119293,0.0150149,-0.020397,0.000867882,0.00058178,-0.0103522
4,5,0,0,0,0,0,0,231.8,254,0,0,0,0,0,0,0,231.8,766,0,0.00015873,-4.13517e-05,-0.00032299,0.0161285,0.00361904,0.000486526,0.00011055,0.000112572,0.0275291,0.000793304,-0.000752564,0.0151675,-0.0215414,0.000715294,0.000658073,-0.00749115
4,6,0,0,0,0,0,0,231.8,254,0,0,0,0,0,0,0,231.8,766,0,0.00103611,0.00106491,0.00093586,0.0152511,0.00316128,0.000143204,0.000568314,0.000341454,0.0569022,6.85118e-05,-0.000714417,0.0146716,-0.0211218,-0.00061985,0.000810661,-0.0081015
4,7,0,0,0,0,0,0,231.8,254,0,0,0,0,0,0,0,231.8,766,0,-0.000146446,0.000225677,0.00017292,0.0157852,0.00400051,6.69097e-05,0.000568314,-0.00087925,-0.0502908,0.000488129,0.000925903,0.0152819,-0.0208929,0.000715294,0.00103954,-0.0105048
4,8,0,0,0,0,0,0,231.8,254,0,0,0,0,0,0,0,231.8,766,0,0.000845375,0.000378265,0.000516243,0.0159378,0.00636562,0.000791702,0.000224991,0.000341454,0.0329841,0.00132736,0.000162964,0.0151675,-0.0207404,0.000104942,0.000619926,-0.00920776
4,9,0,0,0,0,0,0,231.8,254,0,0,0,0,0,0,0,231.8,766,0,0.0005402,-0.00030838,-0.000475578,0.0158996,0.00674709,0.000867996,0.000568314,0.00110439,0.0721992,-0.0017244,-0.000256653,0.0150531,-0.0221136,0.000181236,0.00020031,-0.0102759
5,0,0,0,0,0,0,0,231.8,254,0,0,0,0,0,0,0,231.8,766,0,0.000769082,-0.000155793,0.000249214,0.0158233,0.00651821,0.000639114,0.00114052,0.000913658,-0.0548302,0.00071701,8.66698e-05,0.0141375,-0.0205496,0.000677147,0.00164989,-0.00913147
5,1,0,0,0,0,0,0,231.8,254,0,0,0,0,0,0,0,231.8,766,0,0.0018372,0.00110306,0.00127918,0.0163955,0.00495419,0.000867996,0.000530167,0.000913658,0.0343955,0.000945892,0.00153625,0.0169986,-0.0205115,0.00025753,9.57493e-06,-0.00886444
5,2,0,0,0,0,0,0,231.8,254,0,0,0,0,0,0,0,231.8,766,0,0.00160831,0.000721588,0.000439949,0.01651,0.00411495,0.000181351,0.00106422,0.00106625,0.0792945,3.03648e-05,0.00046814,0.0200503,-0.0207022,0.00117306,0.00145916,-0.00737671
5,3,0,0,0,0,0,0,231.8,254,0,0,0,0,0,0,0,231.8,766,0,0.00103611,0.000874176,0.00101215,0.0163574,0.000948753,0.00151649,0.00175087,0.00026516,-0.0621545,0.00132736,0.000620727,0.01841,-0.0200537,0.000333824,0.0010014,-0.0075293
5,4,0,0,0,0,0,0,231.8,254,0,0,0,0,0,0,0,231.8,766,0,0.000235024,0.000378265,2.03323e-05,0.0156707,0.000719872,0.000333939,-0.000118332,0.000379601,-0.0293481,-8.40761e-05,1.03759e-05,0.0157779,-0.0206259,0.00113491,0.000810661,-0.00882629
5,5,0,0,0,0,0,0,231.8,254,0,0,0,0,0,0,0,231.8,766,0,0.000692788,0.000301971,0.000745125,0.0158615,0.00468716,0.000906143,0.00140755,-1.86916e-06,-0.00829094,0.000259247,-0.000447388,0.0118106,-0.0199774,0.00124935,0.000925102,-0.00844482
5,6,0,0,0,0,0,0,231.8,254,0,0,0,0,0,0,0,231.8,766,0,-7.01519e-05,0.000492706,5.84793e-05,0.015213,0.00586971,0.000257645,7.24029e-05,0.000417748,0.0621665,6.85118e-05,0.000811462,0.0131457,-0.0209311,-0.000352821,0.000314751,-0.00775818
5,7,0,0,0,0,0,0,231.8,254,0,0,0,0,0,0,0,231.8,766,0,0.000654641,-0.000651703,0.000630684,0.01548,0.007243,-0.000619736,0.000530167,0.000494041,-0.00527733,0.000831451,1.03759e-05,0.0112765,-0.0205496,0.000944176,0.000543633,-0.00844482
5,8,0,0,0,0,0,0,231.8,254,0,0,0,0,0,0,0,231.8,766,0,0.000425759,-0.000155793,-1.78147e-05,0.0155944,0.00804409,0.000753555,0.000568314,0.000532188,-0.0339639,3.03648e-05,0.000391846,0.00902584,-0.0211218,6.67954e-05,0.00020031,-0.00844482
5,9,0,0,0,0,0,0,231.8,254,0,0,0,0,0,0,0,231.8,766,0,-7.01519e-05,-0.00019394,-9.41086e-05,0.0149841,0.0108288,-0.000734177,0.000148697,0.000341454,0.0721992,6.85118e-05,-0.000180359,0.0130694,-0.0218466,2.86484e-05,8.58689e-05,-0.00836853
6,0,0,0,0,0,0,0,231.8,254,0,0,0,0,0,0,0,231.8,766,0,0.000654641,-3.20468e-06,0.000897713,0.0154037,0.0125073,0.000105057,-0.00065239,-0.000459633,-0.00676506,0.00121292,0.000124817,0.0138324,-0.02116,-0.000467262,0.000391045,-0.00829224
6,1,0,0,0,0,0,0,231.8,254,0,0,0,0,0,0,0,231.8,766,0,0.000654641,3.49423e-05,-0.000284843,0.0151367,0.0129269,-0.000161972,0.00011055,0.000112572,-0.0322854,-0.000694428,-0.000218506,0.0128024,-0.0223044,-0.000314674,0.000543633,-0.00897888
6,2,0,0,0,0,0,0,231.8,254,0,0,0,0,0,0,0,231.8,766,0,0.000425759,0.000149383,0.000974007,0.0153656,0.0141858,0.00121132,0.000873489,-0.000726662,0.0850166,0.000564422,-0.000714417,0.0119632,-0.0205115,0.0012112,0.00020031,-0.00951294
6,3,0,0,0,0,0,0,231.8,254,0,0,0,0,0,0,0,231.8,766,0,0.000883522,0.0012175,0.000668831,0.0161285,0.0139187,0.000791702,0.00011055,0.00121883,-0.000280075,0.000144806,0.000391846,0.0154345,-0.0209311,0.000410118,0.0010014,-0.00882629
6,4,0,0,0,0,0,0,231.8,254,0,0,0,0,0,0,0,231.8,766,0,0.000997963,-0.000155793,0.000516243,0.0158996,0.0109814,0.000753555,0.000873489,0.00026516,-0.0361764,0.000182953,0.000391846,0.0202411,-0.0207022,0.000906029,0.00149731,-0.00913147
6,5,0,0,0,0,0,0,231.8,254,0,0,0,0,0,0,0,231.8,766,0,0.000349465,3.49423e-05,9.66262e-05,0.015747,0.00728115,0.000372085,0.000263138,-0.000650368,0.0907005,0.000106659,-0.000142212,0.01841,-0.0208167,-8.57925e-05,-0.000677071,-0.00875
6,6,0,0,0,0,0,0,231.8,254,0,0,0,0,0,0,0,231.8,766,0,0.000616494,0.000340118,-0.000170403,0.0149459,0.00934109,-0.000123825,7.24029e-05,-0.000230751,0.00395424,0.000831451,0.000506287,0.018143,-0.0215033,0.000867882,0.000276604,-0.00802521
6,7,0,0,0,0,0,0,231.8,254,0,0,0,0,0,0,0,231.8,766,0,0.00157017,0.000874176,0.000439949,0.0159378,0.0116299,0.000829849,0.000224991,0.00106625,-0.0640618,-0.000274811,0.00107849,0.0166552,-0.0210837,0.000600853,0.000925102,-0.00878815
6,8,0,0,0,0,0,0,231.8,254,0,0,0,0,0,0,0,231.8,766,0,0.000502053,-0.000117646,0.000211067,0.0160141,0.00995144,0.000753555,0.00121681,0.000227013,-0.0126015,0.000488129,0.000277405,0.0158923,-0.0216559,0.00025753,0.000276604,-0.00779633
6,9,0,0,0,0,0,0,231.8,254,0,0,0,0,0,0,0,231.8,766,0,0.000807228,0.000683441,0.000249214,0.0155563,0.0091885,0.000600967,0.000339432,0.000417748,0.0197852,0.000755157,-6.59181e-05,0.0134509,-0.0207785,0.00109676,0.000734367,-0.0102759
7,0,0,0,0,0,0,0,231.8,254,0,0,0,0,0,0,0,231.8,766,0,0.000463906,0.000759735,0.000478096,0.015213,0.0060223,0.000181351,-3.89107e-06,0.000570335,0.0595344,0.000564422,-0.000905151,0.0070422,-0.0208929,-0.000390968,0.00123028,-0.00718597
7,1,0,0,0,0,0,0,231.8,254,0,0,0,0,0,0,0,231.8,766,0,0.000959816,0.000721588,0.00120289,0.0156707,0.00312313,0.000639114,0.00121681,0.000379601,-0.0561272,3.03648e-05,0.00138367,0.0111621,-0.0210074,0.0012112,0.000848808,-0.00920776
7,2,0,0,0,0,0,0,231.8,254,0,0,0,0,0,0,0,231.8,766,0,0.000769082,0.00102676,0.000325508,0.01548,0.00281796,0.000639114,0.000530167,0.000799217,0.0292457,-7.78213e-06,0.00096405,0.0170749,-0.0207404,0.000333824,0.00058178,-0.00936035
7,3,0,0,0,0,0,0,231.8,254,0,0,0,0,0,0,0,231.8,766,0,0.000654641,-4.13517e-05,-5.59617e-05,0.0146026,0.00194057,0.000410232,0.00011055,7.44248e-05,0.0577033,-0.000389252,-0.000332947,0.015816,-0.0213507,0.000143089,-0.000295601,-0.00859741
7,4,0,0,0,0,0,0,231.8,254,0,0,0,0,0,0,0,231.8,766,0,0.000997963,-0.00110947,-0.000551872,0.0150604,0.00186428,-0.000200119,0.00011055,0.000455895,-0.0532281,-0.000847016,0.000353699,0.0178378,-0.0217703,-0.000123939,0.000314751,-0.00989441
7,5,0,0,0,0,0,0,231.8,254,0,0,0,0,0,0,0,231.8,766,0,0.000502053,0.000149383,-9.41086e-05,0.0158233,0.00567898,2.87627e-05,-4.2038e-05,-0.00011631,0.0335944,0.000106659,-0.000447388,0.0167315,-0.0215796,0.000753441,0.000429192,-0.0100089
7,6,0,0,0,0,0,0,231.8,254,0,0,0,0,0,0,0,231.8,766,0,0.00122685,0.00117935,0.000516243,0.0155182,0.00808224,0.00128761,0.000224991,-0.000383339,0.0728858,0.00102219,0.000773315,0.01944,-0.0206641,0.00140194,0.00191692,-0.00794891
7,7,0,0,0,0,0,0,231.8,254,0,0,0,0,0,0,0,231.8,766,0,0.00179905,0.00133194,0.0010503,0.0166626,0.0040768,0.000486526,-3.89107e-06,0.00118069,-0.0549447,0.000373688,0.000353699,0.0154727,-0.0209311,0.000639,0.0010014,-0.00859741
7,8,0,0,0,0,0,0,231.8,254,0,0,0,0,0,0,0,231.8,766,0,0.000730935,-0.000117646,0.000325508,0.0155563,0.00258907,-4.75312e-05,-4.2038e-05,0.000150719,0.0355399,0.000602569,0.000773315,0.0127642,-0.0212744,0.000906029,0.00123028,-0.0081015
7,9,0,0,0,0,0,0,231.8,254,0,0,0,0,0,0,0,231.8,766,0,0.000692788,0.000607147,-1.78147e-05,0.0160141,0.00148281,0.00094429,0.000530167,0.000951805,0.0803626,-0.00138107,0.0010022,0.0148242,-0.0208548,0.000219383,0.00176434,-0.00928406
8,0,0,0,0,0,0,0,231.8,254,0,0,0,0,0,0,0,231.8,766,0,8.2436e-05,0.00129379,-0.00020855,0.0161666,0.00277981,0.000982437,0.00125496,-0.000268898,-0.0629174,-0.000770722,-0.0002948,0.0145953,-0.0209692,0.000867882,0.000963249,-0.00878815
8,1,0,0,0,0,0,0,231.8,254,0,0,0,0,0,0,0,231.8,766,0,0.00126499,0.000416412,0.000630684,0.015747,0.00171169,0.000753555,0.000148697,0.00026516,-0.031141,0.00102219,0.000620727,0.0103228,-0.0215033,0.000333824,0.000543633,-0.00909332
8,2,0,0,0,0,0,0,231.8,254,0,0,0,0,0,0,0,231.8,766,0,0.000807228,7.30893e-05,2.03323e-05,0.01651,-0.000119362,0.000867996,0.000530167,0.000455895,-0.00901573,0.000640716,0.000277405,0.00994137,-0.0202444,0.000944176,-0.000104866,-0.0102759
8,3,0,0,0,0,0,0,231.8,254,0,0,0,0,0,0,0,231.8,766,0,0.000463906,0.000683441,0.000516243,0.0156707,0.00186428,0.000791702,0.000873489,0.000455895,0.0643027,0.0014418,-0.000714417,0.0101321,-0.0210455,0.00155453,0.00115398,-0.0075293
8,4,0,0,0,0,0,0,231.8,254,0,0,0,0,0,0,0,231.8,766,0,0.00149387,0.00152267,0.00093586,0.0160522,0.00304684,0.000906143,0.000530167,0.00129513,-0.00401848,0.000526275,0.000887756,0.0113528,-0.0210455,0.000371971,0.00107769,-0.00852112
8,5,0,0,0,0,0,0,231.8,254,0,0,0,0,0,0,0,231.8,766,0,0.000845375,0.00110306,0.0010503,0.0170059,0.00339016,0.000906143,0.000911636,0.000303307,-0.0356042,0.000907745,0.000162964,0.00971249,-0.0202826,0.0012112,0.00111584,-0.00966553
8,6,0,0,0,0,0,0,231.8,254,0,0,0,0,0,0,0,231.8,766,0,0.00122685,0.00198044,0.000745125,0.0166244,0.00335201,0.0014402,0.000759048,0.000722923,0.0738013,6.85118e-05,0.000353699,0.0106662,-0.0210074,0.00109676,0.00145916,-0.00844482
8,7,0,0,0,0,0,0,231.8,254,0,0,0,0,0,0,0,231.8,766,0,0.000883522,0.0011412,0.000630684,0.0165863,0.00392422,0.00102058,0.00121681,0.00106625,-0.00569694,0.00201401,0.000391846,0.0132602,-0.0195959,0.000867882,0.00199322,-0.00840668
8,8,0,0,0,0,0,0,231.8,254,0,0,0,0,0,0,0,231.8,766,0,0.00103611,-3.20468e-06,0.000439949,0.0167007,0.00358089,0.00109688,0.000453873,0.000532188,-0.0325143,0.000984039,0.000353699,0.0123828,-0.0197485,0.000791588,0.00138287,-0.00791077
8,9,0,0,0,0,0,0,231.8,254,0,0,0,0,0,0,0,231.8,766,0,0.00160831,0.000340118,0.00120289,0.0167007,0.000223961,0.000677261,0.00110237,0.000455895,0.0869621,0.00250992,0.00172699,0.0101321,-0.0210074,0.0012875,0.00168804,-0.00913147
9,0,0,0,0,0,0,0,231.8,254,0,0,0,0,0,0,0,231.8,766,0,-3.20049e-05,0.000301971,0.00055439,0.0152893,0.00224575,0.000372085,0.000148697,-0.000345192,-0.000661545,0.00140366,1.03759e-05,0.00791958,-0.0203589,0.000143089,0.000124016,-0.00772003
9,1,0,0,0,0,0,0,231.8,254,0,0,0,0,0,0,0,231.8,766,0,0.000349465,0.000645294,0.000516243,0.0155563,0.00255093,0.00109688,-0.00149162,0.0010281,-0.0364053,-0.000236664,-0.000828858,0.0111621,-0.0213507,0.000486412,0.0010014,-0.00768188
9,2,0,0,0,0,0,0,231.8,254,0,0,0,0,0,0,0,231.8,766,0,0.000120583,-0.00068985,0.000363655,0.0163192,0.00247463,-4.75312e-05,0.000339432,-0.000268898,0.0912345,0.000564422,0.000620727,0.0120395,-0.0215796,0.000486412,-0.00018116,-0.00813965
9,3,0,0,0,0,0,0,231.8,254,0,0,0,0,0,0,0,231.8,766,0,0.000463906,0.000340118,0.000478096,0.015213,0.0035046,-0.000123825,-0.000537949,3.62778e-05,0.00326759,0.000106659,-0.000599976,0.0118487,-0.02116,0.000639,-0.00155445,-0.00936035
9,4,0,0,0,0,0,0,231.8,254,0,0,0,0,0,0,0,231.8,766,0,0.0011124,0.000340118,0.000134773,0.0169296,0.00808224,0.000448379,0.000224991,0.000608482,-0.065931,-0.00111404,0.00138367,0.0136798,-0.0208929,0.000639,0.000276604,-0.00943665
9,5,0,0,0,0,0,0,231.8,254,0,0,0,0,0,0,0,231.8,766,0,-0.000260887,0.00102676,0.000478096,0.0153274,0.00930294,0.000410232,0.000835342,0.00106625,-0.0146233,0.000488129,-6.59181e-05,0.0149005,-0.0205496,0.000333824,0.000734367,-0.00936035
9,6,0,0,0,0,0,0,231.8,254,0,0,0,0,0,0,0,231.8,766,0,0.0005402,0.000492706,0.000783272,0.0164337,0.00697597,0.00124947,0.00060646,0.000837364,0.0191749,0.0015181,-0.0002948,0.0152438,-0.020397,0.00136379,0.00126843,-0.00756744
9,7,0,0,0,0,0,0,231.8,254,0,0,0,0,0,0,0,231.8,766,0,0.00122685,0.000988617,0.0010503,0.016777,0.00861629,0.000600967,0.00049202,0.000989952,0.0617469,0.00128921,0.00115479,0.0167697,-0.02013,0.000753441,0.000238457,-0.00760559
9,8,0,0,0,0,0,0,231.8,254,0,0,0,0,0,0,0,231.8,766,0,0.000578347,0.00129379,0.00181324,0.0164337,0.00819668,0.00094429,0.00129311,0.000494041,-0.0569283,0.000869598,0.000849609,0.016083,-0.0201682,0.00151638,0.00138287,-0.00878815
9,9,0,0,0,0,0,0,231.8,254,0,0,0,0,0,0,0,231.8,766,0,0.000502053,0.000912323,0.000516243,0.0169296,0.00682339,0.00147835,0.00156013,0.000837364,0.0289787,0.00121292,0.00172699,0.0148623,-0.0203589,0.00254635,0.00264172,-0.00813965
10,0,0,0,0,0,0,0,231.8,254,0,0,0,0,0,0,0,231.8,766,0,0.00107426,0.000340118,0.000783272,0.0155563,0.00949368,0.00102058,0.000568314,-4.00161e-05,0.0577415,-0.000236664,-0.000104065,0.0153201,-0.0206641,0.000867882,8.58689e-05,-0.00718597
10,1,0,0,0,0,0,0,231.8,254,0,0,0,0,0,0,0,231.8,766,0,-0.000833091,0.000912323,-5.59617e-05,0.0159759,0.00895962,0.000257645,-0.000309067,0.000455895,-0.0547158,0.000678863,-0.000409241,0.01738,-0.0218085,0.000219383,0.00069622,-0.00894073
10,2,0,0,0,0,0,0,231.8,254,0,0,0,0,0,0,0,231.8,766,0,0.000463906,-3.20468e-06,-0.000666313,0.015747,0.00998959,-0.000772324,-4.2038e-05,-0.000383339,0.0334037,0.000182953,0.000429993,0.0153201,-0.0219229,-0.00023838,8.58689e-05,-0.00974182
10,3,0,0,0,0,0,0,231.8,254,0,0,0,0,0,0,0,231.8,766,0,0.000425759,0.000797882,0.0010503,0.015747,0.0105618,0.000753555,-3.89107e-06,0.00076107,0.074488,0.000678863,-0.000638123,0.0155871,-0.0209692,-0.000657997,9.57493e-06,-0.00871185
10,4,0,0,0,0,0,0,231.8,254,0,0,0,0,0,0,0,231.8,766,0,4.4289e-05,0.000759735,0.000783272,0.0168151,0.00949368,0.00185982,0.000415726,0.000379601,-0.0574624,0.000411835,0.000544433,0.014252,-0.0204352,0.00144009,0.00145916,-0.00787262
10,5,0,0,0,0,0,0,231.8,254,0,0,0,0,0,0,0,231.8,766,0,0.00015873,-0.000613556,0.000706978,0.0163192,0.00892147,0.00117317,0.000453873,0.000989952,0.0337852,0.000488129,0.00107849,0.0122302,-0.0213507,0.000906029,-0.00018116,-0.00875
10,6,0,0,0,0,0,0,231.8,254,0,0,0,0,0,0,0,231.8,766,0,0.000349465,0.000645294,0.00127918,0.0166626,0.00827297,0.000410232,0.000415726,0.000837364,0.0817741,6.85118e-05,0.000658874,0.0123828,-0.0210074,0.00117306,0.00119213,-0.00825409
10,7,0,0,0,0,0,0,231.8,254,0,0,0,0,0,0,0,231.8,766,0,-0.000451622,0.000530853,0.000630684,0.0159378,0.00583157,0.000410232,-0.000232773,-0.00011631,-0.0655877,0.000945892,0.000697021,0.013222,-0.0208929,0.000791588,-0.000448189,-0.00813965
10,8,0,0,0,0,0,0,231.8,254,0,0,0,0,0,0,0,231.8,766,0,8.2436e-05,0.001866,0.00112659,0.0156707,0.00625118,0.00227943,0.000949783,-4.00161e-05,-0.0324761,0.00117477,0.000162964,0.0149005,-0.0194815,0.00109676,0.00119213,-0.00916962
10,9,0,0,0,0,0,0,231.8,254,0,0,0,0,0,0,0,231.8,766,0,0.000769082,0.00201858,0.00093586,0.0161285,0.0091885,0.00109688,3.42559e-05,0.000188866,-0.00913017,0.00128921,0.000429993,0.0172656,-0.0200156,0.00109676,-0.000524483,-0.00836853
11,0,0,0,0,0,0,0,231.8,254,0,0,0,0,0,0,0,231.8,766,0,0.00115055,0.000530853,0.00017292,0.0171966,0.00709042,0.000791702,0.00152199,0.000570335,0.0633872,0.00132736,0.000124817,0.0202411,-0.02013,0.000715294,0.000276604,-0.00913147
11,1,0,0,0,0,0,0,231.8,254,0,0,0,0,0,0,0,231.8,766,0,0.000578347,0.000683441,0.000363655,0.0162429,0.00461086,0.000600967,0.00106422,0.00110439,-0.00470512,0.000526275,-0.000218506,0.0222247,-0.0202826,0.000715294,0.00107769,-0.00833038
11,2,0,0,0,0,0,0,231.8,254,0,0,0,0,0,0,0,231.8,766,0,0.000235024,0.000797882,0.000249214,0.0152511,0.00586971,-0.000390854,-0.000347214,-7.81631e-05,-0.0374734,0.00170883,0.00104034,0.0201266,-0.0219992,0.000524559,-0.00018116,-0.00962738
11,3,0,0,0,0,0,0,231.8,254,0,0,0,0,0,0,0,231.8,766,0,0.000120583,-0.00019394,0.00055439,0.0154037,0.00956997,0.000105057,0.000186844,-0.000154457,0.0744498,0.000259247,1.03759e-05,0.0123446,-0.0203589,0.000486412,0.000162163,-0.00852112
11,4,0,0,0,0,0,0,231.8,254,0,0,0,0,0,0,0,231.8,766,0,-0.000566063,0.000225677,0.00101215,0.016777,0.0107525,0.00113502,0.000263138,0.000646629,-0.00668877,0.00109848,0.00096405,0.0095599,-0.020397,0.00155453,0.000658073,-0.00882629
11,5,0,0,0,0,0,0,231.8,254,0,0,0,0,0,0,0,231.8,766,0,0.000578347,0.00137009,0.00162251,0.0161285,0.0107144,0.00147835,0.0013694,0.000303307,-0.0348794,0.00102219,8.66698e-05,0.0113528,-0.0200537,0.000944176,0.00020031,-0.00966553
11,6,0,0,0,0,0,0,231.8,254,0,0,0,0,0,0,0,231.8,766,0,0.000235024,0.00175156,0.000706978,0.0167389,0.00842556,0.0014402,0.00011055,0.00137142,0.0889075,0.000335541,0.00142181,0.0189822,-0.0191763,0.00147823,0.00260357,-0.00936035
11,7,0,0,0,0,0,0,231.8,254,0,0,0,0,0,0,0,231.8,766,0,-0.000184593,0.000797882,0.00017292,0.0158615,0.00583157,6.69097e-05,0.000644607,-0.000154457,-0.00146263,0.000907745,-0.000180359,0.0174182,-0.0207022,0.000791588,0.000276604,-0.00920776
11,8,0,0,0,0,0,0,231.8,254,0,0,0,0,0,0,0,231.8,766,0,0.00107426,3.49423e-05,0.000974007,0.0156326,0.00606045,0.000524673,-0.000232773,-0.000307045,-0.0382363,0.000640716,-0.000104065,0.0162738,-0.0213507,0.000639,8.58689e-05,-0.00768188
11,9,0,0,0,0,0,0,231.8,254,0,0,0,0,0,0,0,231.8,766,0,0.000349465,0.000569,0.000668831,0.0163192,0.00743374,0.000181351,0.000148697,0.000722923,0.0925315,-0.000274811,0.00138367,0.0161593,-0.0222662,0.00132565,0.00161175,-0.00916962
12,0,0,0,0,0,0,0,231.8,254,0,0,0,0,0,0,0,231.8,766,0,0.000883522,0.000416412,0.000706978,0.0162048,0.0079678,0.000524673,0.000148697,-0.000192604,0.00322945,0.000526275,0.00104034,0.0163501,-0.0206641,-0.000505409,-0.000371895,-0.00867371
12,1,0,0,0,0,0,0,231.8,254,0,0,0,0,0,0,0,231.8,766,0,-7.01519e-05,0.000645294,0.000859566,0.0157089,0.00552639,0.000867996,0.000644607,-0.000307045,-0.067495,0.000564422,0.000124817,0.0163119,-0.020397,0.000677147,0.000734367,-0.00783447
12,2,0,0,0,0,0,0,231.8,254,0,0,0,0,0,0,0,231.8,766,0,0.000463906,0.000416412,0.000363655,0.0167389,0.00628933,0.000448379,0.000644607,-0.000764809,-0.0144707,0.00140366,0.000239258,0.0160067,-0.0208167,0.00102047,0.000543633,-0.00916962
12,3,0,0,0,0,0,0,231.8,254,0,0,0,0,0,0,0,231.8,766,0,0.000769082,0.00102676,-0.000284843,0.0157089,0.00377163,0.000524673,0.000797195,0.000799217,0.0200141,-0.000122223,-0.00105774,0.0150912,-0.0207785,0.000867882,0.000124016,-0.00714783
12,4,0,0,0,0,0,0,231.8,254,0,0,0,0,0,0,0,231.8,766,0,-7.01519e-05,7.30893e-05,0.000401802,0.0150985,0.00102505,-0.000963059,0.000186844,0.000227013,0.0621284,3.03648e-05,0.000391846,0.011925,-0.0213889,-4.76455e-05,-0.000371895,-0.00977997
12,5,0,0,0,0,0,0,231.8,254,0,0,0,0,0,0,0,231.8,766,0,0.000349465,-0.000270233,-5.59617e-05,0.0159759,0.000567284,0.000829849,0.000759048,0.000112572,-0.0599801,0.000373688,0.000162964,0.0141375,-0.0202444,0.00025753,0.000314751,-0.00962738
12,6,0,0,0,0,0,0,231.8,254,0,0,0,0,0,0,0,231.8,766,0,0.0011124,0.0011412,0.000592537,0.0154037,0.0016354,0.00056282,0.000415726,0.000532188,0.0287879,0.000602569,0.000391846,0.0161593,-0.0203207,0.000829735,0.000543633,-0.00852112
12,7,0,0,0,0,0,0,231.8,254,0,0,0,0,0,0,0,231.8,766,0,0.000769082,0.000378265,0.00112659,0.0168151,0.00106319,0.000791702,0.00114052,0.000379601,0.0590385,0.00170883,0.00096405,0.0168841,-0.0200537,0.00147823,0.000658073,-0.00882629
12,8,0,0,0,0,0,0,231.8,254,0,0,0,0,0,0,0,231.8,766,0,0.000883522,0.000988617,2.03323e-05,0.01651,-0.00141636,0.00136391,0.00144569,0.000799217,-0.0547158,-0.00054184,0.00046814,0.0152819,-0.0194815,0.00163082,0.00226025,-0.00875
12,9,0,0,0,0,0,0,231.8,254,0,0,0,0,0,0,0,231.8,766,0,0.00137943,0.000683441,0.000974007,0.0158996,-0.00191227,-0.000619736,0.00102608,0.000532188,0.0335181,-4.59291e-05,0.000201111,0.0152819,-0.0204352,2.86484e-05,0.00199322,-0.0108862
13,0,0,0,0,0,0,0,231.8,254,0,0,0,0,0,0,0,231.8,766,0,-3.20049e-05,0.000530853,0.000859566,0.0158996,-0.00427738,0.000906143,0.000415726,0.000646629,0.0742973,0.000259247,0.000391846,0.0158923,-0.0213507,0.00132565,0.00119213,-0.00974182
13,1,0,0,0,0,0,0,231.8,254,0,0,0,0,0,0,0,231.8,766,0,0.000616494,0.00102676,0.000745125,0.0159378,-0.00381962,0.00056282,0.00011055,-0.00049778,-0.0591027,0.000144806,-0.000180359,0.0155108,-0.0207404,0.000524559,9.57493e-06,-0.00958923
13,2,0,0,0,0,0,0,231.8,254,0,0,0,0,0,0,0,231.8,766,0,0.000387612,-0.000270233,0.000668831,0.0161666,-0.00336185,0.000639114,-4.2038e-05,-0.000154457,0.0336326,0.000411835,0.000925903,0.0130694,-0.0207785,0.000639,0.00058178,-0.0093222
13,3,0,0,0,0,0,0,231.8,254,0,0,0,0,0,0,0,231.8,766,0,-0.000299034,-3.20468e-06,0.000287361,0.0156326,-0.00622288,0.000906143,0.000148697,0.000341454,0.0823844,0.000526275,-0.000332947,0.0133746,-0.0205496,0.000829735,0.00069622,-0.00913147
13,4,0,0,0,0,0,0,231.8,254,0,0,0,0,0,0,0,231.8,766,0,0.00134129,0.000301971,0.000592537,0.0162811,-0.00523106,0.00113502,0.00148384,0.000951805,-0.0671899,-8.40761e-05,0.000429993,0.0147479,-0.0199011,0.00144009,0.000925102,-0.00894073
13,5,0,0,0,0,0,0,231.8,254,0,0,0,0,0,0,0,231.8,766,0,0.000616494,0.00018753,9.66262e-05,0.0160522,-0.0065662,-8.56782e-05,0.000339432,-0.000459633,-0.0328957,0.00117477,0.000429993,0.0149386,-0.0213507,0.000715294,0.000848808,-0.00821594
13,6,0,0,0,0,0,0,231.8,254,0,0,0,0,0,0,0,231.8,766,0,0.000997963,0.00129379,0.000211067,0.0154419,-0.00160709,0.00117317,0.000911636,0.00076107,-0.00897758,0.000182953,0.000429993,0.0161975,-0.0207785,0.000867882,0.00126843,-0.0103903
13,7,0,0,0,0,0,0,231.8,254,0,0,0,0,0,0,0,231.8,766,0,0.00145573,-4.13517e-05,0.000821419,0.0160904,-0.00397221,0.000105057,0.00140755,0.000570335,0.0686134,6.85118e-05,0.000925903,0.0140612,-0.020397,0.000143089,0.00153545,-0.00989441
13,8,0,0,0,0,0,0,231.8,254,0,0,0,0,0,0,0,231.8,766,0,0.000349465,-4.13517e-05,0.00055439,0.0156707,-0.00530735,-9.38424e-06,0.000263138,-1.86916e-06,-0.00546806,-0.000198517,0.00058258,0.0145953,-0.0213889,-0.00061985,0.000276604,-0.00897888
13,9,0,0,0,0,0,0,231.8,254,0,0,0,0,0,0,0,231.8,766,0,-0.000527916,-3.20468e-06,-0.000284843,0.0160141,-0.0021793,2.87627e-05,-4.2038e-05,0.000188866,-0.0391137,-0.000694428,4.85228e-05,0.0144046,-0.0213507,0.000944176,0.0010014,-0.0099707
14,0,0,0,0,0,0,0,231.8,254,0,0,0,0,0,0,0,231.8,766,0,0.000387612,0.000797882,0.000783272,0.0167389,0.000376549,0.000867996,0.00106422,-0.000841103,0.0762809,0.000907745,0.00138367,0.0141757,-0.0203589,0.00109676,0.000658073,-0.00813965
14,1,0,0,0,0,0,0,231.8,254,0,0,0,0,0,0,0,231.8,766,0,0.00122685,0.000416412,0.000401802,0.0168914,-0.00191227,0.00140205,0.00102608,3.62778e-05,-0.00672691,0.000335541,0.00119293,0.0231784,-0.0194052,0.00105862,0.00115398,-0.00848297
14,2,0,0,0,0,0,0,231.8,254,0,0,0,0,0,0,0,231.8,766,0,0.000807228,0.000530853,0.000363655,0.0162811,-0.00332371,0.000486526,0.00125496,0.000837364,-0.0357186,-0.000236664,0.000391846,0.0160449,-0.0207785,0.00105862,4.77219e-05,-0.00833038
14,3,0,0,0,0,0,0,231.8,254,0,0,0,0,0,0,0,231.8,766,0,0.000578347,0.000988617,5.84793e-05,0.0160141,-0.00305668,-0.000848618,0.000530167,0.000150719,0.0898994,-0.000198517,-0.000561829,0.00749996,-0.0218848,0.000715294,0.00103954,-0.00848297
14,4,0,0,0,0,0,0,231.8,254,0,0,0,0,0,0,0,231.8,766,0,-7.01519e-05,0.0017897,0.00101215,0.0173492,-0.00290409,0.00140205,0.00098793,0.000608482,-0.00230186,0.000297394,0.00115479,0.0107043,-0.0204352,0.000906029,0.00226025,-0.00825409
14,5,0,0,0,0,0,0,231.8,254,0,0,0,0,0,0,0,231.8,766,0,0.000273171,0.000454559,0.00108845,0.0158233,-0.00343815,-9.38424e-06,0.00060646,7.44248e-05,-0.0390755,0.000640716,0.000277405,0.0125735,-0.0206259,0.000944176,-0.000143013,-0.00871185
14,6,0,0,0,0,0,0,231.8,254,0,0,0,0,0,0,0,231.8,766,0,0.000769082,0.000530853,0.00108845,0.0164718,-0.000424538,0.000639114,-0.000728684,3.62778e-05,0.0937141,0.000259247,0.00104034,0.0138324,-0.0210455,-0.000886879,0.00103954,-0.00905518
14,7,0,0,0,0,0,0,231.8,254,0,0,0,0,0,0,0,231.8,766,0,0.000730935,3.49423e-05,-5.59617e-05,0.0159378,-0.00076786,-0.000161972,0.00121681,0.00026516,0.00288612,-4.59291e-05,0.00153625,0.0156253,-0.0218848,0.000791588,0.00119213,-0.00878815
14,8,0,0,0,0,0,0,231.8,254,0,0,0,0,0,0,0,231.8,766,0,0.000387612,-0.000422821,0.00108845,0.0166244,0.000452843,0.000867996,0.000911636,7.44248e-05,-0.0695168,0.00155624,0.00123108,0.012955,-0.021427,0.000639,0.000352898,-0.00928406
14,9,0,0,0,0,0,0,231.8,254,0,0,0,0,0,0,0,231.8,766,0,0.000807228,0.00018753,0.000401802,0.0156707,0.00262722,0.000448379,0.000682754,-0.000612221,-0.0146615,3.03648e-05,0.000239258,0.00860622,-0.0208929,0.000639,8.58689e-05,-0.00916962
15,0,0,0,0,0,0,0,231.8,254,0,0,0,0,0,0,0,231.8,766,0,0.000845375,0.000530853,0.000287361,0.0160141,0.00113949,0.00094429,0.00144569,0.000532188,0.0227225,-0.000122223,0.000849609,0.00902584,-0.0213889,0.000677147,0.00115398,-0.00855927
15,1,0,0,0,0,0,0,231.8,254,0,0,0,0,0,0,0,231.8,766,0,0.00126499,0.000874176,0.00211842,0.0162811,0.00194057,0.000906143,0.000873489,0.000989952,0.0648368,0.00125107,0.00172699,0.0111239,-0.02116,0.00102047,0.00229839,-0.00791077
15,2,0,0,0,0,0,0,231.8,254,0,0,0,0,0,0,0,231.8,766,0,0.000692788,0.000225677,0.000592537,0.0175399,0.0053738,0.00102058,0.00106422,0.000341454,-0.0603616,0.000488129,0.00111664,0.00669888,-0.0200156,0.00197414,0.00103954,-0.00901703
15,3,0,0,0,0,0,0,231.8,254,0,0,0,0,0,0,0,231.8,766,0,0.00103611,0.000454559,0.000287361,0.017044,0.00590786,0.000753555,0.00144569,0.000913658,0.0287879,0.00178513,-0.000104065,0.00845364,-0.019863,0.00136379,0.00164989,-0.00768188
15,4,0,0,0,0,0,0,231.8,254,0,0,0,0,0,0,0,231.8,766,0,0.00149387,0.000759735,0.00093586,0.0162811,0.00773891,0.000105057,0.000949783,0.000799217,0.0593055,-4.59291e-05,0.00145996,0.0139087,-0.0210455,0.000104942,0.00142101,-0.00905518
15,5,0,0,0,0,0,0,231.8,254,0,0,0,0,0,0,0,231.8,766,0,0.000578347,-7.94986e-05,0.00120289,0.0161285,0.00716671,0.000448379,0.000530167,-1.86916e-06,-0.0557839,0.000526275,0.000735168,0.0143283,-0.0195578,0.000639,-0.00018116,-0.00863556
15,6,0,0,0,0,0,0,231.8,254,0,0,0,0,0,0,0,231.8,766,0,0.000997963,0.000454559,-1.78147e-05,0.0160141,0.00949368,0.000791702,0.000453873,0.000379601,0.0342811,-4.59291e-05,-0.000485535,0.0102084,-0.0210455,0.000448265,0.00161175,-0.0081778
15,7,0,0,0,0,0,0,231.8,254,0,0,0,0,0,0,0,231.8,766,0,0.00122685,0.00095047,0.000134773,0.0164718,0.0110196,0.000448379,0.00098793,0.000379601,0.0753272,-0.000427399,0.000429993,0.0136035,-0.0218085,-0.000123939,0.000658073,-0.0081015
15,8,0,0,0,0,0,0,231.8,254,0,0,0,0,0,0,0,231.8,766,0,0.0011887,0.000797882,0.00120289,0.016777,0.0110958,0.000524673,0.00125496,0.00026516,-0.0601327,0.00071701,0.000620727,0.019707,-0.020397,0.00105862,0.000734367,-0.00848297
15,9,0,0,0,0,0,0,231.8,254,0,0,0,0,0,0,0,231.8,766,0,0.00015873,0.000721588,0.00055439,0.0160522,0.0140332,0.000906143,0.000415726,-0.000688515,0.0357307,0.000182953,0.000353699,0.0221103,-0.0206641,0.000753441,0.000467339,-0.00974182
16,0,0,0,0,0,0,0,231.8,254,0,0,0,0,0,0,0,231.8,766,0,0.000997963,0.000492706,0.000859566,0.0164718,0.0160168,0.00056282,0.00110237,0.000455895,0.08227,-7.78213e-06,0.000620727,0.0216525,-0.0208929,0.00147823,0.00123028,-0.00897888
16,1,0,0,0,0,0,0,231.8,254,0,0,0,0,0,0,0,231.8,766,0,0.000387612,0.000416412,0.00158436,0.0163192,0.0171231,0.00102058,0.000301285,0.000608482,-0.0667321,0.000755157,0.0010022,0.0195926,-0.0208167,0.000677147,0.00111584,-0.00653748
16,2,0,0,0,0,0,0,231.8,254,0,0,0,0,0,0,0,231.8,766,0,0.000654641,-0.000460968,0.00093586,0.0163192,0.0153302,0.000257645,0.00197975,0.000608482,-0.0340783,-0.000236664,0.00046814,0.01944,-0.0202826,0.00113491,0.00130657,-0.00783447
16,3,0,0,0,0,0,0,231.8,254,0,0,0,0,0,0,0,231.8,766,0,-0.00022274,0.00018753,0.000401802,0.0165863,0.0151394,0.000677261,0.00102608,0.000417748,-0.00829094,6.85118e-05,-0.000142212,0.0174182,-0.021427,0.000982323,0.00107769,-0.00821594
16,4,0,0,0,0,0,0,231.8,254,0,0,0,0,0,0,0,231.8,766,0,0.000311318,0.000645294,-0.000284843,0.0158233,0.0152539,0.000105057,-3.89107e-06,0.000227013,0.0694144,0.000144806,0.00153625,0.0175708,-0.0221136,0.000333824,0.00138287,-0.0099707
16,5,0,0,0,0,0,0,231.8,254,0,0,0,0,0,0,0,231.8,766,0,0.000578347,0.000530853,-0.000780754,0.0159378,0.0119351,0.000181351,0.000377579,0.000188866,-0.00592583,0.000373688,-0.00124847,0.018143,-0.0207785,-8.57925e-05,0.000467339,-0.00829224
16,6,0,0,0,0,0,0,231.8,254,0,0,0,0,0,0,0,231.8,766,0,6.14207e-06,0.000225677,-0.00020855,0.0161666,0.0123166,0.000639114,0.000453873,0.000112572,-0.0372826,0.000297394,0.000162964,0.0155108,-0.0212744,0.000181236,0.000543633,-0.00878815
16,7,0,0,0,0,0,0,231.8,254,0,0,0,0,0,0,0,231.8,766,0,0.000883522,0.000416412,0.00017292,0.0158996,0.00892147,-8.56782e-05,0.000759048,-0.00106998,0.0781501,0.0002211,0.000773315,0.0149386,-0.0213889,0.000143089,0.00111584,-0.00955109
16,8,0,0,0,0,0,0,231.8,254,0,0,0,0,0,0,0,231.8,766,0,-0.000260887,-0.000422821,-0.000551872,0.015747,0.00842556,0.000295792,0.000415726,-1.86916e-06,-0.0104272,-0.00054184,-0.000943298,0.0157016,-0.0206259,0.000295677,0.000963249,-0.00779633
16,9,0,0,0,0,0,0,231.8,254,0,0,0,0,0,0,0,231.8,766,0,4.4289e-05,0.000836029,0.000668831,0.0158996,0.00899776,0.000448379,-0.00065239,3.62778e-05,-0.0350701,0.000793304,-0.000599976,0.0163501,-0.0209692,0.000181236,0.000543633,-0.00783447
17,0,0,0,0,0,0,0,231.8,254,0,0,0,0,0,0,0,231.8,766,0,0.000921669,-0.000155793,0.000821419,0.0160904,0.00876888,0.000257645,0.00171272,0.000494041,0.0898994,-0.000312958,0.000773315,0.0163501,-0.0206641,0.00155453,0.000848808,-0.00871185
17,1,0,0,0,0,0,0,231.8,254,0,0,0,0,0,0,0,231.8,766,0,-0.000108299,0.00137009,0.000668831,0.0164337,0.00491604,0.00121132,0.000682754,-0.000230751,-0.00123375,0.000945892,0.000849609,0.0187152,-0.0215796,0.00109676,0.000886955,-0.010047
17,2,0,0,0,0,0,0,231.8,254,0,0,0,0,0,0,0,231.8,766,0,0.00107426,0.000721588,-1.78147e-05,0.0160141,0.00346645,0.000677261,0.000873489,0.000875511,-0.040487,0.000411835,0.000239258,0.0183718,-0.0196722,0.000677147,0.000734367,-0.00829224
17,3,0,0,0,0,0,0,231.8,254,0,0,0,0,0,0,0,231.8,766,0,-7.01519e-05,0.000797882,0.00135548,0.0162811,0.000414696,0.000791702,7.24029e-05,0.000188866,0.0942481,0.00071701,0.00123108,0.015816,-0.0202063,0.000867882,0.000619926,-0.00947479
17,4,0,0,0,0,0,0,231.8,254,0,0,0,0,0,0,0,231.8,766,0,0.000387612,0.000492706,0.000249214,0.01651,0.00010952,0.000448379,0.000186844,0.000875511,0.00277168,0.00071701,0.00176514,0.0140612,-0.0210455,0.000944176,0.00210766,-0.0093985
17,5,0,0,0,0,0,0,231.8,254,0,0,0,0,0,0,0,231.8,766,0,8.2436e-05,0.000874176,0.000249214,0.0164337,-0.0034,0.000829849,0.000911636,-0.000307045,-0.0711953,0.000488129,0.000201111,0.0120395,-0.0202063,0.000791588,-0.000143013,-0.00878815
17,6,0,0,0,0,0,0,231.8,254,0,0,0,0,0,0,0,231.8,766,0,0.000235024,0.000645294,0.000516243,0.0157089,-0.00660435,0.000829849,-0.000385361,0.000646629,-0.0151192,0.00113663,0.000315552,0.0133746,-0.0209692,0.00155453,0.00126843,-0.00726227
17,7,0,0,0,0,0,0,231.8,254,0,0,0,0,0,0,0,231.8,766,0,0.000692788,3.49423e-05,0.00108845,0.0157089,-0.00633732,0.00105873,0.00102608,0.000494041,0.0194419,-0.000351105,0.000277405,0.0164264,-0.0205878,0.000715294,0.0010014,-0.00844482
17,8,0,0,0,0,0,0,231.8,254,0,0,0,0,0,0,0,231.8,766,0,0.000921669,0.0011412,0.000325508,0.0163955,-0.00401035,0.00105873,0.000530167,0.00137142,0.0665534,0.000945892,0.000315552,0.0161212,-0.0219611,0.00144009,0.000276604,-0.00920776
17,9,0,0,0,0,0,0,231.8,254,0,0,0,0,0,0,0,231.8,766,0,0.000921669,0.00140823,0.000668831,0.0166244,-0.00446812,0.00155464,0.000148697,0.000989952,-0.0605904,0.000602569,0.000735168,0.0128405,-0.0200156,0.000867882,0.00161175,-0.00760559
18,0,0,0,0,0,0,0,231.8,254,0,0,0,0,0,0,0,231.8,766,0,0.00153202,0.000301971,0.00116474,0.0164718,-0.00439182,0.00124947,0.00129311,0.000570335,0.0291694,0.000526275,0.000239258,0.0128787,-0.0202826,0.00117306,0.000314751,-0.00821594
18,1,0,0,0,0,0,0,231.8,254,0,0,0,0,0,0,0,231.8,766,0,0.000387612,0.000797882,0.000745125,0.0164718,-0.00504032,0.00132576,0.000873489,0.000188866,0.0605262,0.000335541,0.000201111,0.013222,-0.0205496,0.000753441,0.0015736,-0.00890259
18,2,0,0,0,0,0,0,231.8,254,0,0,0,0,0,0,0,231.8,766,0,0.0005402,0.000912323,-0.00032299,0.0168914,-0.00107304,0.00094429,0.000224991,0.000455895,-0.0570046,0.000144806,0.00096405,0.0193255,-0.0207404,0.000791588,0.000314751,-0.00730042
18,3,0,0,0,0,0,0,231.8,254,0,0,0,0,0,0,0,231.8,766,0,-0.000184593,0.000683441,-1.78147e-05,0.0158615,-0.00233189,0.000867996,0.000453873,0.000684776,0.0343955,0.00071701,-0.00162994,0.0190203,-0.0207404,0.000677147,0.000505486,-0.00768188
18,4,0,0,0,0,0,0,231.8,254,0,0,0,0,0,0,0,231.8,766,0,-0.00022274,-0.00019394,0.000325508,0.0167389,-0.00183598,0.000639114,0.000453873,0.00106625,0.0763953,-0.000427399,0.000506287,0.0206988,-0.0207785,0.00102047,0.00161175,-0.007453
18,5,0,0,0,0,0,0,231.8,254,0,0,0,0,0,0,0,231.8,766,0,0.000311318,0.000301971,0.000287361,0.0162429,-0.000958595,0.00056282,-0.000232773,0.000150719,-0.061773,0.000411835,-0.000485535,0.0193637,-0.0213889,0.000562706,-0.000104866,-0.00871185
18,6,0,0,0,0,0,0,231.8,254,0,0,0,0,0,0,0,231.8,766,0,0.000425759,0.000530853,0.000439949,0.01548,-0.000577125,0.00102058,0.000835342,0.000684776,0.0349677,0.000335541,-0.000943298,0.014252,-0.0213889,-9.49856e-06,0.00103954,-0.00699524
18,7,0,0,0,0,0,0,231.8,254,0,0,0,0,0,0,0,231.8,766,0,0.000616494,0.000759735,-0.000246697,0.0160141,0.0009869,0.000143204,0.000720901,-0.000421486,0.0834525,0.000106659,-0.000485535,0.0152819,-0.0222281,0.000562706,-0.000715218,-0.00844482
18,8,0,0,0,0,0,0,231.8,254,0,0,0,0,0,0,0,231.8,766,0,0.00015873,-4.13517e-05,5.84793e-05,0.0160522,0.00251278,0.00102058,0.000949783,0.000532188,-0.0689446,0.000945892,1.03759e-05,0.0176089,-0.0206641,0.00105862,0.000162163,-0.0093222
18,9,0,0,0,0,0,0,231.8,254,0,0,0,0,0,0,0,231.8,766,0,0.000654641,0.000874176,0.000783272,0.0156707,0.00384792,0.00140205,0.000644607,0.00152401,-0.0343072,-0.000236664,0.000391846,0.0143283,-0.0214651,0.00109676,0.00199322,-0.00920776
19,0,0,0,0,0,0,0,231.8,254,0,0,0,0,0,0,0,231.8,766,0,0.000349465,0.0011412,0.00116474,0.0162429,0.00831112,0.00140205,0.000568314,0.000112572,-0.00851982,0.000640716,0.00058258,0.0125735,-0.0208167,0.00109676,0.000276604,-0.00955109
19,1,0,0,0,0,0,0,231.8,254,0,0,0,0,0,0,0,231.8,766,0,0.000502053,0.000797882,0.000287361,0.0167389,0.0009869,0.000753555,0.000682754,0.00144772,0.0728477,-0.00103775,-0.000371094,0.0129931,-0.0205115,0.00151638,0.00180248,-0.00859741
19,2,0,0,0,0,0,0,231.8,254,0,0,0,0,0,0,0,231.8,766,0,0.00137943,0.0012175,0.000439949,0.0162048,0.00144466,0.000219498,0.00178902,0.000684776,-0.00359886,0.00117477,0.00153625,0.0143664,-0.0224188,0.000982323,0.00123028,-0.00871185
19,3,0,0,0,0,0,0,231.8,254,0,0,0,0,0,0,0,231.8,766,0,0.000807228,0.00152267,0.000516243,0.0166244,0.00224575,0.00102058,0.000720901,0.000570335,-0.0412499,0.00102219,-0.000523682,0.0115817,-0.0200919,6.67954e-05,-0.00018116,-0.00890259
19,4,0,0,0,0,0,0,231.8,254,0,0,0,0,0,0,0,231.8,766,0,-0.000108299,0.000225677,0.000211067,0.0161666,0.00144466,0.00109688,0.000263138,0.00106625,0.077082,0.000106659,0.000239258,0.0107806,-0.02116,0.000410118,0.0010014,-0.00806335
19,5,0,0,0,0,0,0,231.8,254,0,0,0,0,0,0,0,231.8,766,0,0.000425759,0.000874176,0.000287361,0.0160522,-0.000500832,0.00121132,0.000873489,0.000875511,-0.00905388,0.00140366,0.000735168,0.0116198,-0.0215033,0.00124935,0.000925102,-0.00916962
19,6,0,0,0,0,0,0,231.8,254,0,0,0,0,0,0,0,231.8,766,0,0.00107426,0.00129379,0.000325508,0.0156707,-0.00229374,0.000448379,0.000301285,0.000532188,-0.0372063,6.85118e-05,0.000124817,0.0118106,-0.0211218,0.000333824,0.000848808,-0.007453
19,7,0,0,0,0,0,0,231.8,254,0,0,0,0,0,0,0,231.8,766,0,-0.000680503,0.00095047,0.00055439,0.0160141,-0.00179783,0.000524673,0.000148697,0.000188866,0.0910056,0.00140366,8.66698e-05,0.0127261,-0.0215796,0.000639,-0.000371895,-0.00867371
19,8,0,0,0,0,0,0,231.8,254,0,0,0,0,0,0,0,231.8,766,0,0.000235024,0.000340118,0.000439949,0.0161285,-0.00233189,0.00140205,0.000911636,-0.000307045,-0.00283592,-0.000389252,0.000124817,0.0129931,-0.0201682,0.00136379,0.00119213,-0.00863556
19,9,0,0,0,0,0,0,231.8,254,0,0,0,0,0,0,0,231.8,766,0,0.000997963,0.00140823,5.84793e-05,0.0158233,0.00197872,0.000257645,0.000415726,0.000570335,-0.0410973,0.000793304,-6.59181e-05,0.0166171,-0.0221899,0.00109676,0.00145916,-0.00993256
20,0,0,0,0,0,0,0,231.8,254,0,0,0,0,0,0,0,231.8,766,0,0.000921669,0.000569,-0.000132256,0.0149459,0.00655636,0.000600967,0.000224991,7.44248e-05,0.0945533,0.000678863,4.85228e-05,0.0126117,-0.0212363,0.000982323,0.000925102,-0.00775818
20,1,0,0,0,0,0,0,231.8,254,0,0,0,0,0,0,0,231.8,766,0,-0.000489769,-0.000270233,0.000630684,0.0158233,0.00648006,0.00113502,-0.000309067,7.44248e-05,0.00216133,-0.000122223,-0.000218506,0.0133746,-0.0211218,0.000219383,0.000619926,-0.00813965
20,2,0,0,0,0,0,0,231.8,254,0,0,0,0,0,0,0,231.8,766,0,6.14207e-06,7.30893e-05,-0.000475578,0.0164337,0.00590786,0.000639114,0.000873489,0.00076107,-0.0713479,0.000564422,-0.00101959,0.0113147,-0.0210455,0.00109676,0.00138287,-0.00947479
20,3,0,0,0,0,0,0,231.8,254,0,0,0,0,0,0,0,231.8,766,0,0.0005402,0.000683441,0.000745125,0.0164337,0.00438198,0.00117317,0.000224991,0.000875511,-0.0152718,0.000831451,0.000391846,0.011658,-0.0200537,0.000410118,0.000925102,-0.00821594
20,4,0,0,0,0,0,0,231.8,254,0,0,0,0,0,0,0,231.8,766,0,8.2436e-05,0.000416412,0.000897713,0.0163192,0.00411495,0.000982437,0.000530167,0.000684776,0.0226844,0.000106659,-0.000180359,0.0126879,-0.0225714,0.000982323,0.00237469,-0.00897888
20,5,0,0,0,0,0,0,231.8,254,0,0,0,0,0,0,0,231.8,766,0,0.00107426,0.00144638,0.000783272,0.0163574,0.00628933,0.00159279,0.00060646,0.000417748,0.0696052,0.00125107,0.000544433,0.0150531,-0.0204352,0.00159267,0.00180248,-0.0093222
20,6,0,0,0,0,0,0,231.8,254,0,0,0,0,0,0,0,231.8,766,0,-0.00022274,0.000912323,0.000630684,0.0163955,0.00869259,0.00140205,0.00148384,0.000227013,-0.06204,0.00102219,-0.000104065,0.0139087,-0.0198248,0.00147823,0.00058178,-0.00901703
20,7,0,0,0,0,0,0,231.8,254,0,0,0,0,0,0,0,231.8,766,0,0.0011887,0.000416412,0.000592537,0.017044,0.0097607,0.000677261,0.00121681,0.00118069,0.0268424,0.000755157,0.000315552,0.0121157,-0.0207785,0.00147823,0.00214581,-0.00852112
20,8,0,0,0,0,0,0,231.8,254,0,0,0,0,0,0,0,231.8,766,0,0.000769082,0.000492706,2.03323e-05,0.0162048,0.00632748,0.00182167,0.00144569,0.000188866,0.061251,0.000831451,0.000239258,0.00795772,-0.02013,0.00113491,0.000658073,-0.00821594
20,9,0,0,0,0,0,0,231.8,254,0,0,0,0,0,0,0,231.8,766,0,0.000845375,0.00129379,0.000249214,0.0154419,0.00586971,0.000333939,0.00060646,0.00125698,-0.0585686,-0.000312958,-0.000523682,0.00910213,-0.0207404,0.00117306,0.00168804,-0.00947479
21,0,0,0,0,0,0,0,231.8,254,0,0,0,0,0,0,0,231.8,766,0,0.00122685,0.000492706,0.000630684,0.0163192,0.00514492,-0.000390854,-4.2038e-05,0.00076107,0.033747,0.00113663,0.000506287,0.00856808,-0.0209692,0.00025753,0.000658073,-0.00936035
21,1,0,0,0,0,0,0,231.8,254,0,0,0,0,0,0,0,231.8,766,0,-0.000184593,0.000378265,0.000668831,0.015747,0.00384792,0.000181351,0.000720901,0.000608482,0.0767387,0.000640716,-0.000142212,0.0136416,-0.0221899,0.000181236,0.000314751,-0.00749115
21,2,0,0,0,0,0,0,231.8,254,0,0,0,0,0,0,0,231.8,766,0,0.000883522,0.000912323,0.00127918,0.0170059,0.0060223,0.000715408,0.000759048,0.000341454,-0.061773,0.00071701,0.00145996,0.0169223,-0.0206641,0.00189785,0.00123028,-0.0104666
21,3,0,0,0,0,0,0,231.8,254,0,0,0,0,0,0,0,231.8,766,0,-7.01519e-05,-7.94986e-05,-9.41086e-05,0.0158996,0.00190243,0.000486526,0.000682754,-0.000802956,0.0341666,0.000640716,-0.00105774,0.0142901,-0.0213507,0.000410118,-0.000143013,-0.00714783
21,4,0,0,0,0,0,0,231.8,254,0,0,0,0,0,0,0,231.8,766,0,0.000616494,3.49423e-05,-0.000170403,0.0160141,0.0016354,0.000753555,0.00098793,0.000303307,0.0834144,0.000602569,-0.000752564,0.0147097,-0.0212363,0.000371971,0.00069622,-0.00760559
21,5,0,0,0,0,0,0,231.8,254,0,0,0,0,0,0,0,231.8,766,0,0.000311318,0.000797882,0.000134773,0.0158615,0.00209316,0.000486526,-8.0185e-05,0.000455895,-0.0692879,0.000144806,-0.000142212,0.0156634,-0.0202444,0.00105862,8.58689e-05,-0.00836853
21,6,0,0,0,0,0,0,231.8,254,0,0,0,0,0,0,0,231.8,766,0,0.000654641,0.000416412,0.000363655,0.0155944,0.00316128,0.000410232,0.00060646,-0.000154457,-0.0341546,0.0014418,0.000277405,0.0176089,-0.0206259,0.000600853,-0.00132557,-0.00836853
21,7,0,0,0,0,0,0,231.8,254,0,0,0,0,0,0,0,231.8,766,0,0.000883522,-7.94986e-05,0.000478096,0.0165863,0.00201687,0.00117317,0.00125496,0.000532188,-0.00943535,0.000488129,0.000277405,0.0144427,-0.0202826,0.000600853,0.00111584,-0.0099707
21,8,0,0,0,0,0,0,231.8,254,0,0,0,0,0,0,0,231.8,766,0,0.000387612,-7.94986e-05,0.000897713,0.0161285,0.0040768,-0.000352707,0.000911636,-0.000230751,0.0723899,0.00140366,0.000620727,0.011658,-0.0217322,0.000371971,0.000886955,-0.00836853
21,9,0,0,0,0,0,0,231.8,254,0,0,0,0,0,0,0,231.8,766,0,0.000616494,0.000836029,0.00017292,0.0164718,0.00705227,0.000181351,0.000682754,0.00076107,-0.00428551,0.00125107,0.0015744,0.0139087,-0.0199393,0.00109676,0.000543633,-0.0106192
22,0,0,0,0,0,0,0,231.8,254,0,0,0,0,0,0,0,231.8,766,0,-7.01519e-05,0.000378265,-0.000246697,0.015747,0.00659451,-0.000276413,-0.000309067,7.44248e-05,-0.0412499,0.000144806,-0.000523682,0.0149005,-0.0215414,0.000677147,0.00069622,-0.00829224
22,1,0,0,0,0,0,0,231.8,254,0,0,0,0,0,0,0,231.8,766,0,0.000273171,-0.000117646,0.00017292,0.0154419,0.00453457,0.000410232,0.000301285,0.000150719,0.0779975,0.00117477,-0.000447388,0.0113147,-0.0217322,-0.00061985,0.000467339,-0.00707153
22,2,0,0,0,0,0,0,231.8,254,0,0,0,0,0,0,0,231.8,766,0,0.000120583,0.000607147,0.000974007,0.0160904,0.00506863,6.69097e-05,0.000759048,0.000227013,-0.00954979,0.000373688,0.000773315,0.00864437,-0.0205496,0.000791588,0.000276604,-0.00916962
22,3,0,0,0,0,0,0,231.8,254,0,0,0,0,0,0,0,231.8,766,0,0.000883522,-0.00030838,0.000516243,0.0165863,0.00651821,-0.000238266,0.00121681,0.000227013,-0.0378167,0.000449982,0.000735168,0.0125354,-0.0229529,0.000333824,0.000162163,-0.00791077
22,4,0,0,0,0,0,0,231.8,254,0,0,0,0,0,0,0,231.8,766,0,0.000997963,0.0017897,0.00135548,0.0163192,0.00678524,0.00140205,0.0013694,0.000646629,0.0920737,0.000640716,0.00058258,0.0196688,-0.0197485,0.00144009,0.00226025,-0.00890259
22,5,0,0,0,0,0,0,231.8,254,0,0,0,0,0,0,0,231.8,766,0,0.000273171,0.00110306,0.000706978,0.0169296,0.00854,0.000295792,0.000911636,0.000608482,-0.00234001,0.000297394,0.000658874,0.0163119,-0.0202063,0.000143089,0.000391045,-0.00897888
22,6,0,0,0,0,0,0,231.8,254,0,0,0,0,0,0,0,231.8,766,0,0.0011124,-7.94986e-05,0.00127918,0.0170059,0.00754818,0.00109688,0.00152199,0.000608482,-0.0420129,0.000945892,0.000506287,0.0142901,-0.0204733,0.000715294,0.00058178,-0.00840668
22,7,0,0,0,0,0,0,231.8,254,0,0,0,0,0,0,0,231.8,766,0,0.00122685,0.00129379,2.03323e-05,0.0166626,0.00911221,0.00163094,0.00156013,0.00110439,0.0966132,0.000259247,0.00161255,0.0150531,-0.0206259,0.00132565,0.000162163,-0.00848297
22,8,0,0,0,0,0,0,231.8,254,0,0,0,0,0,0,0,231.8,766,0,0.00107426,0.000492706,0.000821419,0.0167389,0.0106381,0.000715408,0.00098793,0.000646629,0.00357277,0.00163254,0.00123108,0.0116198,-0.0206259,0.00182156,0.00058178,-0.0081778
22,9,0,0,0,0,0,0,231.8,254,0,0,0,0,0,0,0,231.8,766,0,0.000196877,0.000301971,0.00101215,0.0162811,0.0103329,0.000677261,0.00125496,0.000837364,-0.0721871,0.00117477,1.03759e-05,0.0110095,-0.0206641,0.000371971,0.000963249,-0.00676636
23,0,0,0,0,0,0,0,231.8,254,0,0,0,0,0,0,0,231.8,766,0,0.0005402,0.000454559,0.00150806,0.0165481,0.00991329,6.69097e-05,0.000682754,0.000608482,-0.0161874,0.000373688,-2.77711e-05,0.0147479,-0.0212744,0.00109676,0.000467339,-0.0081015
23,1,0,0,0,0,0,0,231.8,254,0,0,0,0,0,0,0,231.8,766,0,0.00107426,0.00018753,0.000821419,0.0152511,0.0109433,0.000753555,0.000339432,0.000913658,0.0387061,0.000411835,8.66698e-05,0.0170367,-0.0202826,0.000906029,0.00149731,-0.00878815
23,2,0,0,0,0,0,0,231.8,254,0,0,0,0,0,0,0,231.8,766,0,0.0011124,0.000340118,-5.59617e-05,0.0149841,0.00686153,-0.000200119,0.00060646,-0.000230751,0.194346,0.0002211,0.000124817,0.0157779,-0.0211218,0.000524559,-0.000829658,-0.00993256
23,3,0,0,0,0,0,0,231.8,254,0,0,0,0,0,0,0,231.8,766,0,0.000425759,-0.00126205,0.000974007,0.0163574,0.0054501,0.000448379,-4.2038e-05,0.000341454,0.180308,3.03648e-05,0.00046814,0.0128024,-0.0205115,0.000524559,0.00020031,-0.00905518
23,4,0,0,0,0,0,0,231.8,254,0,0,0,0,0,0,0,231.8,766,0,0.00103611,0.000378265,0.000668831,0.016777,0.00422939,0.000791702,0.00152199,0.000608482,0.14464,0.000297394,0.000811462,0.0123446,-0.0216559,0.00144009,0.00176434,-0.00821594
23,5,0,0,0,0,0,0,231.8,254,0,0,0,0,0,0,0,231.8,766,0,0.00137943,0.00102676,0.000783272,0.0164337,0.00453457,0.000791702,0.0013694,0.00076107,0.0119651,0.000564422,0.000849609,0.0143283,-0.0200156,0.00147823,0.00119213,-0.0108481
23,6,0,0,0,0,0,0,231.8,254,0,0,0,0,0,0,0,231.8,766,0,0.000349465,0.00125565,0.00120289,0.0160141,0.00365719,0.00113502,0.000339432,0.000532188,-0.138258,0.00102219,-0.000104065,0.0168078,-0.0210837,-0.00023838,0.0010014,-0.00897888
23,7,0,0,0,0,0,0,231.8,254,0,0,0,0,0,0,0,231.8,766,0,0.0011124,3.49423e-05,0.000249214,0.0157089,0.00335201,-0.000505295,0.000530167,0.000417748,-0.0148522,0.000144806,0.000429993,0.0150149,-0.0217322,0.000371971,0.000124016,-0.00756744
23,8,0,0,0,0,0,0,231.8,254,0,0,0,0,0,0,0,231.8,766,0,0.0005402,0.000988617,0.000516243,0.0162811,0.00232204,0.000219498,0.000759048,0.000608482,0.0273002,0.000984039,0.000506287,0.0188678,-0.0206641,0.000333824,0.000886955,-0.0103522
23,9,0,0,0,0,0,0,231.8,254,0,0,0,0,0,0,0,231.8,766,0,0.000959816,0.00171341,0.000821419,0.0160522,0.0029324,0.00102058,0.00102608,-0.00049778,-0.11392,0.000831451,0.00096405,0.014252,-0.0200156,0.00109676,0.00107769,-0.00951294
24,0,0,0,0,0,0,0,231.8,254,0,0,0,0,0,0,0,231.8,766,0,0.000807228,3.49423e-05,-0.000399284,0.0158233,0.00133022,0.000333939,0.00106422,0.000608482,-0.00844353,0.000488129,-0.00121033,0.0107425,-0.0210074,0.000791588,-0.000104866,-0.00947479
24,1,0,0,0,0,0,0,231.8,254,0,0,0,0,0,0,0,231.8,766,0,4.4289e-05,-3.20468e-06,-0.000857048,0.0154037,-0.000386391,0.00056282,0.00011055,-4.00161e-05,0.0461066,0.000259247,-0.000867005,0.0159304,-0.0213889,0.000677147,4.77219e-05,-0.00947479
24,2,0,0,0,0,0,0,231.8,254,0,0,0,0,0,0,0,231.8,766,0,0.000311318,-0.00019394,-0.000666313,0.0143356,0.000262108,-8.56782e-05,-0.000232773,0.00076107,-0.106214,0.000106659,0.000277405,0.0148623,-0.0215414,2.86484e-05,0.00130657,-0.00859741
24,3,0,0,0,0,0,0,231.8,254,0,0,0,0,0,0,0,231.8,766,0,0.0011124,0.00018753,0.000630684,0.0155182,0.00155911,0.000677261,0.00102608,0.000913658,-0.064634,0.000564422,-0.000714417,0.0152056,-0.0205496,0.000143089,0.00153545,-0.00871185
24,4,0,0,0,0,0,0,231.8,254,0,0,0,0,0,0,0,231.8,766,0,0.000425759,-0.00030838,0.000668831,0.0163955,0.000643578,-0.00069603,0.000415726,0.000150719,-0.0355279,0.00117477,0.00096405,0.0152438,-0.0205878,2.86484e-05,0.000848808,-0.00871185
24,5,0,0,0,0,0,0,231.8,254,0,0,0,0,0,0,0,231.8,766,0,0.000959816,0.000607147,-1.78147e-05,0.0160141,-0.00126377,0.000753555,0.000453873,-0.000574074,0.0464881,0.000449982,-2.77711e-05,0.0112384,-0.0210837,0.000486412,-0.00018116,-0.010314
24,6,0,0,0,0,0,0,231.8,254,0,0,0,0,0,0,0,231.8,766,0,8.2436e-05,0.000988617,0.000668831,0.0160904,0.00148281,0.000181351,0.000530167,0.00026516,-0.0255715,0.00113663,-6.59181e-05,0.0159304,-0.0207785,0.000143089,0.0015736,-0.00848297
24,7,0,0,0,0,0,0,231.8,254,0,0,0,0,0,0,0,231.8,766,0,0.000769082,0.000111236,0.000859566,0.016777,0.00110134,0.000639114,0.000949783,0.00076107,-0.0535332,-0.000122223,0.000658874,0.0184863,-0.02116,0.000677147,0.00149731,-0.00863556
24,8,0,0,0,0,0,0,231.8,254,0,0,0,0,0,0,0,231.8,766,0,0.000502053,0.000759735,0.000668831,0.0160904,0.000796166,0.00117317,0.000911636,0.000646629,0.0647605,0.00121292,0.000124817,0.0137179,-0.0207404,0.000677147,0.000124016,-0.00749115
24,9,0,0,0,0,0,0,231.8,254,0,0,0,0,0,0,0,231.8,766,0,0.000845375,0.000492706,0.000134773,0.0159759,0.0029324,0.000372085,0.000568314,0.000799217,-0.0160729,-0.000198517,-0.00105774,0.0126117,-0.0215414,0.000448265,0.00138287,-0.00813965
25,0,0,0,0,0,0,0,231.8,254,0,0,0,0,0,0,0,231.8,766,0,0.000235024,0.000683441,0.000630684,0.0161666,0.00327572,-0.000123825,0.000530167,-0.000307045,-0.043615,0.000259247,0.000658874,0.0145572,-0.0217703,2.86484e-05,-0.000219307,-0.00772003
25,1,0,0,0,0,0,0,231.8,254,0,0,0,0,0,0,0,231.8,766,0,0.00015873,0.000492706,-0.000170403,0.0159378,0.00331387,-0.000200119,0.000186844,-0.000345192,0.0857032,-0.000274811,-0.000332947,0.0149386,-0.0223044,-9.49856e-06,-0.00113483,-0.00905518
25,2,0,0,0,0,0,0,231.8,254,0,0,0,0,0,0,0,231.8,766,0,0.0011124,-7.94986e-05,0.000516243,0.01651,-0.00145451,0.000677261,0.00121681,-0.00011631,-0.00470512,0.00117477,0.0010022,0.014252,-0.0205496,0.00166897,0.00248913,-0.00852112
25,3,0,0,0,0,0,0,231.8,254,0,0,0,0,0,0,0,231.8,766,0,0.000578347,0.00148453,-0.000590019,0.015747,-0.00286594,0.00102058,0.000377579,0.000646629,-0.0404107,0.000488129,-0.000905151,0.0123065,-0.0208548,0.000295677,0.00103954,-0.00607971
25,4,0,0,0,0,0,0,231.8,254,0,0,0,0,0,0,0,231.8,766,0,0.000425759,-0.00030838,0.000363655,0.0156707,-8.12148e-05,0.000486526,-0.000385361,0.000570335,0.0951255,-0.00016037,-0.000142212,0.0158923,-0.0217703,0.000295677,0.000886955,-0.00913147
25,5,0,0,0,0,0,0,231.8,254,0,0,0,0,0,0,0,231.8,766,0,0.000425759,0.000301971,0.00055439,0.0162811,-0.00237003,0.000524673,-0.000156479,0.000455895,0.0044883,0.000373688,-0.000943298,0.0145953,-0.0216177,6.67954e-05,0.000238457,-0.00787262
25,6,0,0,0,0,0,0,231.8,254,0,0,0,0,0,0,0,231.8,766,0,0.000959816,0.00110306,0.000668831,0.0161285,0.000643578,0.000105057,0.00167458,0.000799217,-0.065664,0.000488129,0.000315552,0.0176852,-0.0208548,0.00201229,0.000772514,-0.00920776
25,7,0,0,0,0,0,0,231.8,254,0,0,0,0,0,0,0,231.8,766,0,0.000883522,0.000874176,0.000211067,0.0164718,0.00277981,0.00094429,-4.2038e-05,0.00106625,-0.00993126,0.00125107,0.000201111,0.0166552,-0.0204352,0.000486412,0.00123028,-0.00901703
25,8,0,0,0,0,0,0,231.8,254,0,0,0,0,0,0,0,231.8,766,0,0.000997963,0.0012175,0.0010503,0.0165481,-4.92088e-06,0.00121132,0.000949783,3.62778e-05,0.0243629,0.000564422,0.00046814,0.0195163,-0.0202826,0.000639,0.000314751,-0.00806335
25,9,0,0,0,0,0,0,231.8,254,0,0,0,0,0,0,0,231.8,766,0,0.000502053,0.000721588,0.00093586,0.0166244,0.000338402,0.00105873,0.000873489,0.00114254,0.0673545,0.00117477,0.000925903,0.0181811,-0.0199393,0.0012875,0.00248913,-0.00897888
26,0,0,0,0,0,0,0,231.8,254,0,0,0,0,0,0,0,231.8,766,0,0.00137943,0.00125565,-5.59617e-05,0.0170059,-0.000119362,0.00105873,0.000873489,0.000684776,-0.0534951,0.000640716,0.000811462,0.0157016,-0.0198248,0.000982323,0.000925102,-0.00718597
26,1,0,0,0,0,0,0,231.8,254,0,0,0,0,0,0,0,231.8,766,0,0.00126499,0.000721588,0.00093586,0.0158996,0.00121578,0.000791702,0.000759048,0.000608482,0.0343955,0.00140366,-0.000523682,0.0141375,-0.0194052,0.00132565,0.0010014,-0.00813965
26,2,0,0,0,0,0,0,231.8,254,0,0,0,0,0,0,0,231.8,766,0,0.000463906,0.0012175,0.000439949,0.0160904,-0.000119362,0.00109688,0.000415726,0.000875511,0.0658668,0.000678863,0.000544433,0.011658,-0.0219992,0.000677147,0.00184063,-0.00886444
26,3,0,0,0,0,0,0,231.8,254,0,0,0,0,0,0,0,231.8,766,0,0.00130314,0.00144638,-5.59617e-05,0.0157852,-0.000653419,-0.000276413,0.000224991,0.000837364,-0.0507485,0.000678863,0.000315552,0.0110476,-0.02116,0.000867882,0.000276604,-0.0081778
26,4,0,0,0,0,0,0,231.8,254,0,0,0,0,0,0,0,231.8,766,0,-3.20049e-05,0.000645294,5.84793e-05,0.015213,-0.00111118,0.000715408,-0.00130089,0.000875511,0.0405372,0.000144806,-0.000638123,0.012192,-0.0216559,-0.000467262,-6.6719e-05,-0.0093985
26,5,0,0,0,0,0,0,231.8,254,0,0,0,0,0,0,0,231.8,766,0,0.000997963,0.000301971,-1.78147e-05,0.0155182,-0.000195656,-0.000390854,-4.2038e-05,-4.00161e-05,0.0813163,-0.00054184,-0.000142212,0.011925,-0.0213126,-0.000162086,-0.000867805,-0.007453
26,6,0,0,0,0,0,0,231.8,254,0,0,0,0,0,0,0,231.8,766,0,0.000807228,0.00110306,0.00101215,0.017807,0.00274166,0.00147835,0.00102608,0.000837364,-0.0546014,0.00071701,0.00111664,0.0130313,-0.0190237,0.00155453,0.00218395,-0.00821594
26,7,0,0,0,0,0,0,231.8,254,0,0,0,0,0,0,0,231.8,766,0,0.000921669,0.000569,2.03323e-05,0.0155944,0.00442013,0.000295792,-4.2038e-05,7.44248e-05,0.0407661,3.03648e-05,4.85228e-05,0.0129168,-0.0202063,0.00109676,0.000467339,-0.00825409
26,8,0,0,0,0,0,0,231.8,254,0,0,0,0,0,0,0,231.8,766,0,0.000349465,0.00152267,0.000821419,0.0157852,0.00609859,0.00155464,0.000949783,0.00076107,0.0878394,0.00155624,-0.000523682,0.0179522,-0.0200537,0.000944176,0.000848808,-0.00813965
26,9,0,0,0,0,0,0,231.8,254,0,0,0,0,0,0,0,231.8,766,0,0.00107426,0.000645294,0.00143177,0.0170822,0.00754818,0.00102058,0.000530167,0.000227013,-0.0611626,0.000640716,0.00096405,0.0191348,-0.0200919,0.000600853,0.000467339,-0.00836853
27,0,0,0,0,0,0,0,231.8,254,0,0,0,0,0,0,0,231.8,766,0,0.0005402,0.000988617,-0.000475578,0.0164337,0.00743374,-0.000123825,0.000148697,0.000417748,-0.028814,0.00132736,4.85228e-05,0.0156253,-0.0216559,0.00166897,0.000238457,-0.00920776
27,1,0,0,0,0,0,0,231.8,254,0,0,0,0,0,0,0,231.8,766,0,0.00015873,0.000683441,0.00143177,0.0162048,0.00590786,0.00117317,0.00125496,0.000494041,-0.00432365,0.0015181,0.000506287,0.0141375,-0.0209692,-9.49856e-06,0.00119213,-0.00825409
27,2,0,0,0,0,0,0,231.8,254,0,0,0,0,0,0,0,231.8,766,0,0.000387612,0.00182785,0.00124104,0.016777,0.00960812,0.00056282,0.00049202,-1.86916e-06,0.0715125,0.00106033,0.000620727,0.0138324,-0.0203589,0.00151638,4.77219e-05,-0.0093222
27,3,0,0,0,0,0,0,231.8,254,0,0,0,0,0,0,0,231.8,766,0,0.00130314,0.000111236,0.000363655,0.0177688,0.0097607,0.00163094,0.00102608,0.000379601,-0.00138634,0.00281509,0.00176514,0.0152438,-0.0191382,0.00178341,0.00058178,-0.00852112
27,4,0,0,0,0,0,0,231.8,254,0,0,0,0,0,0,0,231.8,766,0,0.000997963,0.00148453,0.00124104,0.0166244,0.00846371,0.00132576,0.00152199,0.00148586,-0.0336587,0.00071701,0.000391846,0.0148242,-0.0210455,0.0012875,0.00115398,-0.0075293
27,5,0,0,0,0,0,0,231.8,254,0,0,0,0,0,0,0,231.8,766,0,0.00141758,0.000912323,0.0010503,0.0161666,0.0112866,0.00140205,0.000339432,0.000227013,0.0804389,0.00071701,0.000162964,0.0160067,-0.0200156,0.00136379,0.00107769,-0.00897888
27,6,0,0,0,0,0,0,231.8,254,0,0,0,0,0,0,0,231.8,766,0,0.00157017,0.00167526,0.000897713,0.0166244,0.0111721,0.00159279,0.000682754,0.000532188,-0.00375145,0.00109848,0.000925903,0.0161975,-0.0208548,0.00136379,0.00134472,-0.00710968
27,7,0,0,0,0,0,0,231.8,254,0,0,0,0,0,0,0,231.8,766,0,0.000730935,0.00175156,0.000897713,0.0159378,0.00701412,-0.000123825,3.42559e-05,7.44248e-05,-0.0322091,0.000259247,0.000201111,0.0175708,-0.0217322,0.000524559,0.00123028,-0.00920776
27,8,0,0,0,0,0,0,231.8,254,0,0,0,0,0,0,0,231.8,766,0,0.0005402,0.00125565,0.000974007,0.0164718,0.00499233,0.000829849,-0.000194626,0.000379601,0.091883,0.00174698,0.00138367,0.016846,-0.0207785,0.00163082,0.00134472,-0.00833038
27,9,0,0,0,0,0,0,231.8,254,0,0,0,0,0,0,0,231.8,766,0,0.000502053,0.00133194,0.000439949,0.0163955,0.00850185,0.000791702,-0.000118332,-0.000802956,0.000177689,0.000144806,0.00046814,0.0114291,-0.0206641,0.00025753,-0.000257454,-0.00989441
28,0,0,0,0,0,0,0,231.8,254,0,0,0,0,0,0,0,231.8,766,0,0.000769082,-3.20468e-06,-0.000246697,0.0161666,0.00743374,0.000410232,0.000911636,0.000150719,-0.0371682,0.00109848,0.000544433,0.0121539,-0.0205878,0.000982323,4.77219e-05,-0.0100851
28,1,0,0,0,0,0,0,231.8,254,0,0,0,0,0,0,0,231.8,766,0,0.000273171,0.000301971,0.000134773,0.0158233,0.00686153,0.000181351,0.000720901,-0.000192604,0.0956214,3.03648e-05,-0.000714417,0.0187915,-0.0205878,-9.49856e-06,0.000276604,-0.00772003
28,2,0,0,0,0,0,0,231.8,254,0,0,0,0,0,0,0,231.8,766,0,0.00122685,0.0012175,0.00055439,0.0158233,0.00895962,0.000295792,-0.000537949,0.000913658,0.00494606,-0.000389252,-6.59181e-05,0.0231784,-0.0210837,0.000600853,0.000734367,-0.00958923
28,3,0,0,0,0,0,0,231.8,254,0,0,0,0,0,0,0,231.8,766,0,0.000349465,-0.000346527,0.000363655,0.0161285,0.011401,0.000791702,0.000224991,-4.00161e-05,-0.0673425,0.000564422,0.000391846,0.0189441,-0.0210074,-0.000162086,0.00103954,-0.00829224
28,4,0,0,0,0,0,0,231.8,254,0,0,0,0,0,0,0,231.8,766,0,0.000654641,0.000492706,0.00112659,0.01651,0.00892147,0.000639114,0.000759048,0.000608482,-0.0133645,0.0002211,0.00096405,0.0169986,-0.0202444,0.000906029,0.000963249,-0.00821594
28,5,0,0,0,0,0,0,231.8,254,0,0,0,0,0,0,0,231.8,766,0,0.000349465,0.00018753,0.00017292,0.0148315,0.00499233,-9.38424e-06,-3.89107e-06,0.000417748,0.0232566,0.000907745,0.000735168,0.0169604,-0.0207404,0.000448265,0.000810661,-0.00928406
28,6,0,0,0,0,0,0,231.8,254,0,0,0,0,0,0,0,231.8,766,0,-0.000260887,0.000492706,0.000516243,0.0158615,0.00926479,0.000295792,-0.000461655,-0.000612221,0.0650657,0.000831451,-0.000218506,0.0164264,-0.0208548,0.000333824,-0.0015926,-0.00783447
28,7,0,0,0,0,0,0,231.8,254,0,0,0,0,0,0,0,231.8,766,0,0.000578347,-0.00068985,0.000287361,0.0151748,0.00949368,0.000486526,0.000568314,0.000646629,-0.0597894,0.000182953,0.000162964,0.015816,-0.0213126,0.00113491,0.00123028,-0.00943665
28,8,0,0,0,0,0,0,231.8,254,0,0,0,0,0,0,0,231.8,766,0,-3.20049e-05,-0.000117646,2.03323e-05,0.0162429,0.00949368,0.00094429,0.000682754,7.44248e-05,0.0298179,3.03648e-05,0.000124817,0.014786,-0.0203207,0.00102047,0.000238457,-0.00852112
28,9,0,0,0,0,0,0,231.8,254,0,0,0,0,0,0,0,231.8,766,0,0.000425759,0.000759735,0.00135548,0.0151367,0.00926479,0.000753555,0.000301285,-0.000230751,0.0606788,-0.000312958,0.000315552,0.0173037,-0.02116,0.00105862,0.00119213,-0.00775818
29,0,0,0,0,0,0,0,231.8,254,0,0,0,0,0,0,0,231.8,766,0,0.00015873,-4.13517e-05,0.000287361,0.016777,0.00804409,0.00094429,0.000224991,0.000608482,-0.0556695,-0.000465546,0.000849609,0.0170749,-0.0194052,0.000753441,0.000886955,-0.00894073
29,1,0,0,0,0,0,0,231.8,254,0,0,0,0,0,0,0,231.8,766,0,0.000959816,0.00156082,0.00154621,0.0169296,0.00773891,0.000791702,0.00152199,0.000112572,0.0356162,0.00186142,0.000811462,0.0153582,-0.0199774,0.00105862,0.000314751,-0.00768188
29,2,0,0,0,0,0,0,231.8,254,0,0,0,0,0,0,0,231.8,766,0,0.00122685,0.000912323,0.000745125,0.0162048,0.00781521,0.00105873,0.000759048,0.000646629,0.0758231,0.00128921,0.00107849,0.0157016,-0.0198248,0.0018597,0.00107769,-0.00848297
29,3,0,0,0,0,0,0,231.8,254,0,0,0,0,0,0,0,231.8,766,0,0.000769082,0.000874176,0.000287361,0.0159378,0.00834927,0.000600967,0.000720901,0.000112572,-0.0590646,0.00071701,0.000391846,0.0118487,-0.0206641,0.00105862,-0.000448189,-0.00802521
29,4,0,0,0,0,0,0,231.8,254,0,0,0,0,0,0,0,231.8,766,0,0.00145573,0.00148453,0.00017292,0.0163192,0.0101422,0.00136391,0.00098793,0.000837364,0.035807,-0.00016037,0.00058258,0.0116961,-0.0199393,0.00163082,0.00271801,-0.00913147
29,5,0,0,0,0,0,0,231.8,254,0,0,0,0,0,0,0,231.8,766,0,0.00164646,0.000912323,0.00135548,0.0169296,0.00621304,0.00140205,0.00163643,0.000227013,0.0826133,0.00106033,0.0010022,0.0111239,-0.0199393,0.00105862,0.00058178,-0.00875
29,6,0,0,0,0,0,0,231.8,254,0,0,0,0,0,0,0,231.8,766,0,0.0005402,0.0011412,0.000783272,0.0166244,0.00636562,0.00056282,0.000530167,0.000379601,-0.066961,0.000678863,0.00229919,0.0118487,-0.0202063,0.00163082,0.00119213,-0.00871185
29,7,0,0,0,0,0,0,231.8,254,0,0,0,0,0,0,0,231.8,766,0,0.000730935,0.000454559,0.000325508,0.0151748,0.0040768,0.00128761,0.000759048,-0.000459633,-0.0338113,0.00109848,-6.59181e-05,0.0120013,-0.0219611,0.000143089,0.000925102,-0.00802521
29,8,0,0,0,0,0,0,231.8,254,0,0,0,0,0,0,0,231.8,766,0,0.000959816,0.000645294,0.000897713,0.0162048,0.00483974,0.00056282,0.000263138,-0.000268898,-0.00935905,0.0014418,4.85228e-05,0.011925,-0.0200537,0.000829735,-0.000448189,-0.00878815
29,9,0,0,0,0,0,0,231.8,254,0,0,0,0,0,0,0,231.8,766,0,4.4289e-05,0.000111236,0.000783272,0.0152893,-4.30678e-05,0.000181351,-0.000118332,3.62778e-05,0.0669349,0.000106659,0.00046814,0.0136035,-0.0209311,0.000181236,0.00130657,-0.00958923
30,0,0,0,0,0,0,0,231.8,254,0,0,0,0,0,0,0,231.8,766,0,-0.000108299,-0.000766144,0.000249214,0.0150604,-0.00118748,0.000219498,0.00011055,0.000188866,-0.00424736,0.000106659,-6.59181e-05,0.0120395,-0.0215033,0.000906029,-2.8572e-05,-0.00875
30,1,0,0,0,0,0,0,231.8,254,0,0,0,0,0,0,0,231.8,766,0,-0.000146446,-0.000537262,-0.000170403,0.015213,0.00262722,-0.000276413,-0.000881271,-0.000383339,-0.0396096,-7.78213e-06,-0.000180359,0.014786,-0.0208548,0.000181236,9.57493e-06,-0.00859741
30,2,0,0,0,0,0,0,231.8,254,0,0,0,0,0,0,0,231.8,766,0,-0.000146446,0.000111236,5.84793e-05,0.0156707,0.0029324,0.000333939,0.000568314,0.000341454,0.0759376,-0.00103775,0.000849609,0.0176852,-0.0218085,-0.000505409,-0.000677071,-0.00875
30,3,0,0,0,0,0,0,231.8,254,0,0,0,0,0,0,0,231.8,766,0,8.2436e-05,0.000340118,0.000363655,0.0150222,0.00155911,6.69097e-05,0.00060646,0.00026516,-0.00733726,0.00102219,0.000925903,0.0115435,-0.0221899,0.000867882,0.000734367,-0.00913147
30,4,0,0,0,0,0,0,231.8,254,0,0,0,0,0,0,0,231.8,766,0,8.2436e-05,0.000530853,0.000287361,0.016777,0.00247463,0.00140205,0.000415726,0.000227013,-0.0357186,0.000831451,0.000735168,0.0128024,-0.02013,0.000181236,0.000619926,-0.00722412
30,5,0,0,0,0,0,0,231.8,254,0,0,0,0,0,0,0,231.8,766,0,0.000807228,0.0011412,0.00146992,0.0168914,0.00243649,0.00128761,0.00163643,0.000379601,0.0900901,0.00182327,0.00115479,0.0190966,-0.0200919,0.00163082,-0.000753365,-0.00829224
30,6,0,0,0,0,0,0,231.8,254,0,0,0,0,0,0,0,231.8,766,0,0.000692788,-3.20468e-06,0.000668831,0.015747,0.000185814,0.000639114,0.00049202,3.62778e-05,-0.00241631,0.000945892,-0.00101959,0.0117724,-0.0199011,0.00102047,0.000276604,-0.00970367
30,7,0,0,0,0,0,0,231.8,254,0,0,0,0,0,0,0,231.8,766,0,0.000654641,0.000263824,5.84793e-05,0.0163955,0.000643578,0.000448379,0.00049202,0.000303307,-0.0394189,0.000297394,0.00142181,0.0104754,-0.020397,0.00105862,0.00058178,-0.00848297
30,8,0,0,0,0,0,0,231.8,254,0,0,0,0,0,0,0,231.8,766,0,-0.000260887,-0.00030838,0.000897713,0.0159759,-0.000958595,0.000867996,0.00110237,0.000379601,0.0940955,0.000793304,0.00058258,0.0189059,-0.0207022,0.001936,0.00138287,-0.00875
30,9,0,0,0,0,0,0,231.8,254,0,0,0,0,0,0,0,231.8,766,0,-0.000604209,0.000912323,0.000745125,0.0159759,0.00117764,0.000715408,0.00049202,-0.000688515,0.00349648,0.000373688,0.000353699,0.0166934,-0.0202826,0.000143089,0.0015736,-0.00974182
31,0,0,0,0,0,0,0,231.8,254,0,0,0,0,0,0,0,231.8,766,0,0.000959816,0.000340118,0.000516243,0.0153274,0.0022839,0.000105057,0.00148384,0.00076107,-0.0697076,0.000678863,0.000391846,0.0155871,-0.0210455,0.000715294,0.000886955,-0.0099707
31,1,0,0,0,0,0,0,231.8,254,0,0,0,0,0,0,0,231.8,766,0,-0.000146446,0.000492706,0.000516243,0.0166244,0.0047253,0.00128761,0.000911636,0.000150719,-0.0151192,0.000945892,-0.000180359,0.0150531,-0.0205496,-4.76455e-05,0.000848808,-0.00909332
31,2,0,0,0,0,0,0,231.8,254,0,0,0,0,0,0,0,231.8,766,0,0.00015873,-4.13517e-05,0.000211067,0.0175018,0.00686153,0.00117317,0.00129311,-0.000192604,0.0182975,0.000678863,8.66698e-05,0.0184481,-0.019863,0.00124935,-2.8572e-05,-0.0093222
31,3,0,0,0,0,0,0,231.8,254,0,0,0,0,0,0,0,231.8,766,0,0.000769082,7.30893e-05,0.00154621,0.0167007,0.00720486,0.000600967,0.00102608,0.000455895,0.0664771,0.00071701,0.000277405,0.0185244,-0.0195959,0.000944176,0.0015736,-0.00737671
31,4,0,0,0,0,0,0,231.8,254,0,0,0,0,0,0,0,231.8,766,0,0.00015873,0.00140823,0.00108845,0.01651,0.00766262,0.000982437,0.00159828,0.000646629,-0.0600564,0.00071701,0.00123108,0.0131839,-0.020397,0.00144009,0.0027943,-0.00882629
31,5,0,0,0,0,0,0,231.8,254,0,0,0,0,0,0,0,231.8,766,0,0.00126499,0.00106491,0.00135548,0.0158996,0.00831112,0.000867996,0.00186531,0.000455895,0.0277961,0.0015181,0.00283325,0.0149005,-0.0189856,0.00216488,0.00206951,-0.00882629
31,6,0,0,0,0,0,0,231.8,254,0,0,0,0,0,0,0,231.8,766,0,0.000463906,0.000530853,0.00120289,0.0168914,0.00579342,0.000867996,0.0013694,0.00118069,0.0610603,0.000907745,0.000353699,0.0164264,-0.0195578,0.000791588,0.00103954,-0.00833038
31,7,0,0,0,0,0,0,231.8,254,0,0,0,0,0,0,0,231.8,766,0,0.000692788,0.000836029,0.000668831,0.0166244,0.00277981,0.000639114,0.000873489,0.000494041,-0.0575768,0.00170883,0.00207031,0.0187915,-0.0205115,0.00151638,0.00176434,-0.00806335
31,8,0,0,0,0,0,0,231.8,254,0,0,0,0,0,0,0,231.8,766,0,0.000769082,0.000378265,0.000745125,0.0162811,0.00461086,0.000677261,0.00140755,0.00106625,0.0340141,0.00071701,0.00058258,0.0169604,-0.0205878,0.000448265,4.77219e-05,-0.00806335
31,9,0,0,0,0,0,0,231.8,254,0,0,0,0,0,0,0,231.8,766,0,6.14207e-06,0.000607147,0.000287361,0.0160904,0.00270351,0.00113502,0.000949783,-0.000307045,0.076319,0.00102219,-0.00128662,0.0136798,-0.0208929,0.000829735,0.000734367,-0.00855927
32,0,0,0,0,0,0,0,231.8,254,0,0,0,0,0,0,0,231.8,766,0,0.000883522,0.000454559,0.000401802,0.0164337,0.00422939,0.000486526,0.0013694,0.000417748,-0.0612389,0.000945892,0.0016507,0.0127261,-0.0215796,0.0018597,0.000925102,-0.0093985
32,1,0,0,0,0,0,0,231.8,254,0,0,0,0,0,0,0,231.8,766,0,0.000769082,-0.00019394,0.000211067,0.0160904,0.00529751,0.000105057,0.00121681,0.000608482,0.0348151,-0.000732575,-0.000409241,0.0130694,-0.021427,0.000181236,0.00069622,-0.00943665
32,2,0,0,0,0,0,0,231.8,254,0,0,0,0,0,0,0,231.8,766,0,0.000959816,0.000301971,0.000821419,0.015747,0.00728115,0.00105873,0.00102608,0.000532188,0.084101,0.00109848,0.000620727,0.0138705,-0.0199393,0.00124935,0.00145916,-0.00989441
32,3,0,0,0,0,0,0,231.8,254,0,0,0,0,0,0,0,231.8,766,0,0.00164646,0.000530853,0.00143177,0.0169677,0.00949368,0.00117317,0.00102608,0.0010281,-0.0674187,0.00174698,-0.000371094,0.0135653,-0.0203589,0.0012112,0.000658073,-0.00928406
32,4,0,0,0,0,0,0,231.8,254,0,0,0,0,0,0,0,231.8,766,0,0.000196877,0.00095047,0.00124104,0.0156707,0.00987514,-0.000352707,0.00011055,0.000112572,-0.0341164,0.000182953,0.000391846,0.0142138,-0.0212363,0.000524559,0.00111584,-0.00901703
32,5,0,0,0,0,0,0,231.8,254,0,0,0,0,0,0,0,231.8,766,0,0.000730935,0.000607147,0.000325508,0.0161285,0.00953182,0.000295792,0.00106422,0.000379601,-0.0107705,0.000144806,0.00058258,0.0130694,-0.0207022,0.000562706,0.00069622,-0.00981812
32,6,0,0,0,0,0,0,231.8,254,0,0,0,0,0,0,0,231.8,766,0,0.000578347,0.0011412,0.000325508,0.0168533,0.00903591,0.00132576,0.00110237,0.000341454,0.0684608,0.00167068,-6.59181e-05,0.0150531,-0.0196722,0.00109676,0.00168804,-0.00886444
32,7,0,0,0,0,0,0,231.8,254,0,0,0,0,0,0,0,231.8,766,0,0.00122685,0.000607147,0.000859566,0.0172348,0.0078915,0.00094429,0.000759048,0.00114254,-0.00325554,0.0015181,0.00130737,0.0150531,-0.0212363,0.0018597,0.00199322,-0.00703339
32,8,0,0,0,0,0,0,231.8,254,0,0,0,0,0,0,0,231.8,766,0,0.000692788,0.00140823,0.000287361,0.0167389,0.00762447,0.00163094,0.00148384,0.000608482,-0.0386941,0.000182953,0.000697021,0.012192,-0.0200156,0.00102047,0.000886955,-0.00855927
32,9,0,0,0,0,0,0,231.8,254,0,0,0,0,0,0,0,231.8,766,0,0.00145573,0.00175156,0.00143177,0.0168533,0.00705227,0.00132576,0.00106422,0.00121883,0.0813163,0.00159439,0.000201111,0.0139087,-0.0208929,0.00136379,0.00241283,-0.00768188
33,0,0,0,0,0,0,0,231.8,254,0,0,0,0,0,0,0,231.8,766,0,0.000997963,0.000454559,0.000974007,0.0173492,0.00487789,0.00132576,0.000682754,0.000646629,-0.00924461,0.00132736,0.00058258,0.0151675,-0.0210455,0.00201229,0.000925102,-0.0101233
33,1,0,0,0,0,0,0,231.8,254,0,0,0,0,0,0,0,231.8,766,0,0.000463906,0.000263824,0.000859566,0.0168151,0.00499233,-9.38424e-06,0.00140755,0.00144772,-0.0370156,0.000488129,0.000544433,0.0127642,-0.0205878,0.00136379,0.00123028,-0.00875
33,2,0,0,0,0,0,0,231.8,254,0,0,0,0,0,0,0,231.8,766,0,0.0011887,0.0011412,0.000783272,0.0163574,0.00575527,0.00113502,0.000873489,0.000646629,0.0911201,0.00125107,0.0010022,0.0148623,-0.0200919,0.0012875,0.000925102,-0.00886444
33,3,0,0,0,0,0,0,231.8,254,0,0,0,0,0,0,0,231.8,766,0,0.0005402,0.000225677,0.00124104,0.0168151,0.00659451,0.00094429,0.0013694,0.000722923,-0.00176781,0.000564422,0.000658874,0.0116198,-0.0204352,0.000791588,0.000848808,-0.00783447
33,4,0,0,0,0,0,0,231.8,254,0,0,0,0,0,0,0,231.8,766,0,0.00015873,-0.000232087,0.00158436,0.0159378,0.00476345,0.00109688,-3.89107e-06,0.000951805,-0.040487,0.00140366,0.00115479,0.0116198,-0.0210074,0.000677147,0.00195507,-0.00787262
33,5,0,0,0,0,0,0,231.8,254,0,0,0,0,0,0,0,231.8,766,0,0.00115055,0.000378265,-0.000170403,0.0159759,0.00434383,0.00117317,0.00190346,-4.00161e-05,0.0950111,-0.000351105,-0.000599976,0.010628,-0.0197485,0.000715294,0.000124016,-0.00833038
33,6,0,0,0,0,0,0,231.8,254,0,0,0,0,0,0,0,231.8,766,0,0.000807228,0.00106491,0.000859566,0.0162429,0.00388607,0.000715408,0.000568314,0.000608482,0.00406868,0.000259247,0.000506287,0.0115817,-0.0205496,0.00151638,0.00161175,-0.00882629
33,7,0,0,0,0,0,0,231.8,254,0,0,0,0,0,0,0,231.8,766,0,0.00137943,0.000492706,0.000401802,0.01651,0.000758019,0.000410232,0.000873489,0.0016003,-0.0701272,0.000640716,0.000239258,0.0126498,-0.0217703,0.000600853,0.00126843,-0.00833038
33,8,0,0,0,0,0,0,231.8,254,0,0,0,0,0,0,0,231.8,766,0,0.000807228,0.000607147,0.000897713,0.0164337,0.000147667,0.000448379,0.000911636,0.000417748,-0.0153481,0.000488129,0.00126923,0.0155108,-0.02013,0.00208858,0.000658073,-0.00920776
33,9,0,0,0,0,0,0,231.8,254,0,0,0,0,0,0,0,231.8,766,0,0.0005402,0.000645294,0.000478096,0.0166626,0.000376549,0.000524673,-0.000194626,0.00125698,0.0247062,0.00113663,0.00107849,0.0150912,-0.020397,0.000333824,0.00176434,-0.00768188
34,0,0,0,0,0,0,0,231.8,254,0,0,0,0,0,0,0,231.8,766,0,0.000463906,-0.00030838,-0.000284843,0.0158233,-0.00286594,0.000295792,0.00133125,-0.000230751,0.0694144,-0.000351105,-0.000638123,0.0172656,-0.0215033,0.00025753,0.000429192,-0.00775818
34,1,0,0,0,0,0,0,231.8,254,0,0,0,0,0,0,0,231.8,766,0,0.0005402,0.000378265,0.00101215,0.0150604,-0.00324741,0.000867996,0.000682754,0.000379601,-0.0614678,0.000831451,0.000429993,0.0109713,-0.0200537,0.00117306,0.00115398,-0.00760559
34,2,0,0,0,0,0,0,231.8,254,0,0,0,0,0,0,0,231.8,766,0,0.000769082,-7.94986e-05,-5.59617e-05,0.0157852,-0.00332371,0.000677261,0.000835342,0.00125698,0.0277961,0.000640716,0.00111664,0.00883511,-0.0219611,0.000333824,0.000619926,-0.00722412
34,3,0,0,0,0,0,0,231.8,254,0,0,0,0,0,0,0,231.8,766,0,0.0011124,-0.000117646,0.00055439,0.0158996,-0.00328556,0.000524673,0.00133125,0.000684776,0.0596107,0.00121292,0.000239258,0.0136416,-0.0207785,0.00102047,4.77219e-05,-0.00867371
34,4,0,0,0,0,0,0,231.8,254,0,0,0,0,0,0,0,231.8,766,0,0.000120583,0.000149383,0.000516243,0.0155563,-0.00477329,0.000639114,0.000377579,0.000608482,-0.0584542,0.000526275,1.03759e-05,0.0140612,-0.0206641,0.000829735,0.00180248,-0.00955109
34,5,0,0,0,0,0,0,231.8,254,0,0,0,0,0,0,0,231.8,766,0,0.000502053,0.000340118,-0.00032299,0.0150985,-0.00702396,0.000486526,3.42559e-05,0.000989952,0.033747,0.000449982,-0.000485535,0.0157397,-0.021694,0.00025753,-6.6719e-05,-0.00775818
34,6,0,0,0,0,0,0,231.8,254,0,0,0,0,0,0,0,231.8,766,0,0.000883522,0.0011412,0.000783272,0.0163955,-0.0065662,0.000715408,0.00152199,0.000989952,0.0763953,0.00109848,0.000735168,0.0194018,-0.0210455,0.00140194,0.00142101,-0.00806335
34,7,0,0,0,0,0,0,231.8,254,0,0,0,0,0,0,0,231.8,766,0,0.00103611,0.000454559,0.000287361,0.0157089,-0.00271336,0.000753555,0.000301285,-0.000383339,-0.0610101,0.000526275,0.000277405,0.0166934,-0.0212744,0.000867882,0.00103954,-0.0099707
34,8,0,0,0,0,0,0,231.8,254,0,0,0,0,0,0,0,231.8,766,0,0.00107426,0.00117935,0.00143177,0.0170059,-0.00374332,0.000829849,0.00159828,0.00110439,0.0363792,0.000526275,0.00096405,0.0170367,-0.0195959,0.000906029,-0.000524483,-0.00749115
34,9,0,0,0,0,0,0,231.8,254,0,0,0,0,0,0,0,231.8,766,0,0.000807228,0.000797882,0.000287361,0.0165863,-0.00626102,0.00094429,0.000682754,0.00106625,0.0866569,-0.00016037,0.000697021,0.01738,-0.0211218,0.0012875,0.00153545,-0.00768188
35,0,0,0,0,0,0,0,231.8,254,0,0,0,0,0,0,0,231.8,766,0,0.000997963,0.000492706,0.000287361,0.0168914,-0.00816837,0.000867996,0.000720901,0.000379601,-0.0699746,0.00178513,0.000315552,0.0171511,-0.0210837,0.000867882,0.00058178,-0.00836853
35,1,0,0,0,0,0,0,231.8,254,0,0,0,0,0,0,0,231.8,766,0,4.4289e-05,-7.94986e-05,0.00101215,0.0158615,-0.00893131,0.000181351,0.000568314,0.00137142,-0.035299,0.00071701,-0.000447388,0.0131457,-0.0205115,0.000181236,0.00123028,-0.0075293
35,2,0,0,0,0,0,0,231.8,254,0,0,0,0,0,0,0,231.8,766,0,0.00137943,0.000225677,0.00101215,0.0161285,-0.00397221,0.000410232,0.000949783,0.000417748,-0.00691765,0.000640716,0.00119293,0.0152438,-0.02116,0.0012112,0.000429192,-0.00829224
35,3,0,0,0,0,0,0,231.8,254,0,0,0,0,0,0,0,231.8,766,0,0.000730935,0.000721588,0.000439949,0.0157852,-0.00111118,0.00121132,0.00106422,0.00129513,0.123698,0.000678863,-0.000218506,0.0215762,-0.0202826,0.00117306,0.00103954,-0.00722412
35,4,0,0,0,0,0,0,231.8,254,0,0,0,0,0,0,0,231.8,766,0,-3.20049e-05,0.00156082,0.0016988,0.0166626,0.000605431,0.00113502,0.000873489,0.000799217,0.206057,0.00106033,0.000620727,0.022835,-0.0205115,0.00147823,0.00130657,-0.00714783
35,5,0,0,0,0,0,0,231.8,254,0,0,0,0,0,0,0,231.8,766,0,0.00107426,7.30893e-05,0.000363655,0.0150985,0.00155911,0.00174538,0.000911636,0.000417748,0.159746,0.00071701,0.00058258,0.0151675,-0.0206641,0.000639,0.00142101,-0.00836853
35,6,0,0,0,0,0,0,231.8,254,0,0,0,0,0,0,0,231.8,766,0,0.00115055,0.0012175,9.66262e-05,0.0162048,0.000948753,0.00121132,0.00152199,0.00121883,0.101458,-0.000122223,-0.000142212,0.00990322,-0.0206641,0.000333824,-0.000143013,-0.00722412
35,7,0,0,0,0,0,0,231.8,254,0,0,0,0,0,0,0,231.8,766,0,0.00107426,0.000530853,0.00112659,0.0157089,-0.000310097,0.000600967,0.000911636,0.000608482,-0.0918328,0.00113663,0.00123108,0.0144427,-0.0205878,0.00144009,0.00199322,-0.00787262
35,8,0,0,0,0,0,0,231.8,254,0,0,0,0,0,0,0,231.8,766,0,0.000273171,0.000836029,0.000859566,0.0164718,-0.000577125,0.000753555,0.000797195,0.000989952,-0.0977456,0.000831451,-0.000523682,0.018677,-0.0218848,0.000715294,0.000505486,-0.00840668
35,9,0,0,0,0,0,0,231.8,254,0,0,0,0,0,0,0,231.8,766,0,0.000349465,0.000645294,0.000821419,0.0157852,0.00102505,0.000410232,0.00049202,0.000799217,0.0439704,-0.000732575,-0.0002948,0.020737,-0.0213126,0.000486412,0.000505486,-0.00928406
36,0,0,0,0,0,0,0,231.8,254,0,0,0,0,0,0,0,231.8,766,0,0.000463906,-0.000117646,0.000401802,0.0161285,0.00342831,0.000791702,-0.000347214,0.000722923,-0.0545632,0.00071701,0.00046814,0.01841,-0.0212744,0.000677147,0.000772514,-0.00947479
36,1,0,0,0,0,0,0,231.8,254,0,0,0,0,0,0,0,231.8,766,0,-0.000146446,0.000874176,0.000668831,0.0169296,0.00697597,0.00117317,0.000415726,0.000227013,-0.089544,0.000640716,0.000506287,0.0102465,-0.0202063,0.000944176,0.000162163,-0.00974182
36,2,0,0,0,0,0,0,231.8,254,0,0,0,0,0,0,0,231.8,766,0,0.000997963,0.000225677,0.000630684,0.0159759,0.00998959,0.000715408,-0.000156479,0.000417748,0.0570548,0.000945892,0.000162964,0.0116961,-0.0210074,0.00140194,0.000963249,-0.00943665
36,3,0,0,0,0,0,0,231.8,254,0,0,0,0,0,0,0,231.8,766,0,0.000959816,0.000263824,-0.000551872,0.0172348,0.0120495,0.00121132,0.000644607,0.000913658,-0.0349557,-0.000656281,0.000162964,0.0173037,-0.0218848,0.000371971,0.000314751,-0.00649933
36,4,0,0,0,0,0,0,231.8,254,0,0,0,0,0,0,0,231.8,766,0,-0.000299034,0.000607147,0.00112659,0.015747,0.0105999,0.00109688,0.000759048,0.000303307,-0.103506,0.00128921,8.66698e-05,0.0189822,-0.0197485,0.00105862,0.00191692,-0.00779633
36,5,0,0,0,0,0,0,231.8,254,0,0,0,0,0,0,0,231.8,766,0,0.000273171,0.00095047,0.000783272,0.0154419,0.0097607,0.00102058,0.000835342,0.00118069,-0.0434243,-7.78213e-06,0.000201111,0.0140994,-0.0203589,0.00117306,0.00145916,-0.00875
36,6,0,0,0,0,0,0,231.8,254,0,0,0,0,0,0,0,231.8,766,0,0.0005402,0.00095047,0.00146992,0.0159378,0.0104473,0.000867996,0.00148384,0.000837364,-0.00218742,0.000144806,0.000697021,0.0100177,-0.0201682,0.00159267,0.00058178,-0.00833038
36,7,0,0,0,0,0,0,231.8,254,0,0,0,0,0,0,0,231.8,766,0,0.00103611,0.00148453,0.00139362,0.0172729,0.0116299,0.00140205,0.00117867,0.00144772,0.0419486,0.000411835,0.00184143,0.0118487,-0.020397,0.00189785,0.00161175,-0.00947479
36,8,0,0,0,0,0,0,231.8,254,0,0,0,0,0,0,0,231.8,766,0,0.000959816,0.000912323,0.000668831,0.0162811,0.0128125,0.00147835,0.000911636,0.000799217,-0.077337,0.00178513,0.000658874,0.0144809,-0.0199393,0.00140194,0.000848808,-0.00733856
36,9,0,0,0,0,0,0,231.8,254,0,0,0,0,0,0,0,231.8,766,0,0.000997963,0.00129379,0.00131733,0.0161666,0.0120877,0.00155464,0.000759048,0.00144772,0.0163902,0.000831451,0.000697021,0.0136416,-0.02013,0.00132565,0.00134472,-0.00737671
37,0,0,0,0,0,0,0,231.8,254,0,0,0,0,0,0,0,231.8,766,0,0.000425759,0.00110306,0.000363655,0.0168914,0.00953182,0.00147835,0.00125496,0.00140957,0.0490821,0.000526275,0.000658874,0.0131839,-0.0215033,0.000791588,0.00260357,-0.00806335
37,1,0,0,0,0,0,0,231.8,254,0,0,0,0,0,0,0,231.8,766,0,0.000807228,0.00125565,0.000630684,0.0165863,0.00689968,0.00163094,0.00110237,-7.81631e-05,-0.0640618,0.00163254,0.000239258,0.0137942,-0.0192526,0.00163082,0.00058178,-0.00829224
37,2,0,0,0,0,0,0,231.8,254,0,0,0,0,0,0,0,231.8,766,0,0.0005402,0.00129379,0.00055439,0.0166244,0.00895962,0.000524673,0.000682754,0.00110439,0.0298942,0.00071701,0.000315552,0.011925,-0.0208167,0.000448265,0.00187878,-0.00829224
37,3,0,0,0,0,0,0,231.8,254,0,0,0,0,0,0,0,231.8,766,0,0.000616494,0.000912323,0.00017292,0.0160904,0.0066708,0.00094429,0.000835342,-1.86916e-06,0.0716651,0.000869598,-0.000180359,0.0082629,-0.0217322,0.000639,0.00020031,-0.00844482
37,4,0,0,0,0,0,0,231.8,254,0,0,0,0,0,0,0,231.8,766,0,0.000921669,0.00152267,0.000478096,0.0158996,0.00327572,0.000677261,0.000224991,-1.86916e-06,-0.0604379,0.000755157,0.000658874,0.0143283,-0.0197485,0.000791588,0.00069622,-0.00909332
37,5,0,0,0,0,0,0,231.8,254,0,0,0,0,0,0,0,231.8,766,0,0.000769082,0.000683441,0.00162251,0.0175399,0.00552639,0.00159279,0.000759048,0.00121883,0.0364555,0.000144806,0.00115479,0.0176089,-0.0199011,0.00140194,0.00199322,-0.00974182
37,6,0,0,0,0,0,0,231.8,254,0,0,0,0,0,0,0,231.8,766,0,0.000997963,0.00117935,0.000974007,0.0166244,0.00304684,0.00121132,0.00117867,0.000341454,0.0834144,0.00147995,0.000544433,0.0176852,-0.0203207,0.00105862,0.00153545,-0.00806335
37,7,0,0,0,0,0,0,231.8,254,0,0,0,0,0,0,0,231.8,766,0,0.000997963,0.000569,0.000249214,0.0165863,0.0029324,0.000333939,0.00121681,0.00076107,-0.0641,0.00117477,0.000506287,0.0148623,-0.0210455,0.00136379,0.00069622,-0.00943665
37,8,0,0,0,0,0,0,231.8,254,0,0,0,0,0,0,0,231.8,766,0,0.0005402,0.000111236,0.00131733,0.0172348,0.00361904,0.00121132,0.000797195,-1.86916e-06,-0.0285088,0.000297394,0.000887756,0.0151294,-0.0201682,0.00136379,0.000124016,-0.00772003
37,9,0,0,0,0,0,0,231.8,254,0,0,0,0,0,0,0,231.8,766,0,0.000997963,0.000645294,0.000516243,0.0160522,0.00247463,0.000639114,0.000415726,0.000989952,-0.00432365,0.000297394,0.000277405,0.0134509,-0.020397,-0.000467262,0.00058178,-0.00882629
38,0,0,0,0,0,0,0,231.8,254,0,0,0,0,0,0,0,231.8,766,0,0.000997963,0.000492706,0.000516243,0.0163192,0.00155911,0.000906143,3.42559e-05,0.000227013,0.0710166,-4.59291e-05,0.00046814,0.0146716,-0.0204352,0.00113491,0.000543633,-0.00913147
38,1,0,0,0,0,0,0,231.8,254,0,0,0,0,0,0,0,231.8,766,0,-0.000794944,0.000759735,0.000439949,0.0157852,-0.00141636,0.000524673,-0.000957565,-0.000307045,0.000521012,0.000755157,0.000849609,0.0163119,-0.0205878,0.000791588,4.77219e-05,-0.00875
38,2,0,0,0,0,0,0,231.8,254,0,0,0,0,0,0,0,231.8,766,0,0.00015873,-0.000117646,9.66262e-05,0.0154419,-0.00214115,0.000105057,0.000301285,0.000646629,-0.0307595,-0.000579987,0.000658874,0.0161975,-0.0213507,0.000371971,0.00115398,-0.00882629
38,3,0,0,0,0,0,0,231.8,254,0,0,0,0,0,0,0,231.8,766,0,0.000311318,0.000340118,0.00055439,0.0150985,-0.000653419,0.000867996,0.000224991,7.44248e-05,0.0818885,0.000869598,0.000658874,0.0171893,-0.0206641,0.000829735,-0.000143013,-0.00859741
38,4,0,0,0,0,0,0,231.8,254,0,0,0,0,0,0,0,231.8,766,0,0.000578347,-4.13517e-05,-0.00032299,0.015747,-0.000119362,0.000639114,-0.000156479,0.000379601,-0.00153892,0.000526275,0.000697021,0.0174945,-0.0204733,-0.000657997,8.58689e-05,-0.00863556
38,5,0,0,0,0,0,0,231.8,254,0,0,0,0,0,0,0,231.8,766,0,0.000997963,7.30893e-05,-0.000132256,0.0156707,0.00148281,0.000410232,0.00117867,0.00106625,-0.0291955,-0.000579987,-0.000256653,0.0145572,-0.0214651,0.000906029,0.0010014,-0.00852112
38,6,0,0,0,0,0,0,231.8,254,0,0,0,0,0,0,0,231.8,766,0,0.000578347,0.000988617,0.00173695,0.0173492,0.00312313,0.000677261,0.000873489,-1.86916e-06,0.0960029,0.00250992,0.000773315,0.0141757,-0.0197867,0.000906029,-0.000143013,-0.00737671
38,7,0,0,0,0,0,0,231.8,254,0,0,0,0,0,0,0,231.8,766,0,0.000578347,0.000569,5.84793e-05,0.0162048,0.00468716,-4.75312e-05,0.000301285,0.000227013,0.00372536,0.000945892,0.000239258,0.0162738,-0.0221518,0.000600853,4.77219e-05,-0.00821594
38,8,0,0,0,0,0,0,231.8,254,0,0,0,0,0,0,0,231.8,766,0,0.000425759,-4.13517e-05,0.000859566,0.0167007,0.00659451,0.000867996,0.00117867,0.000684776,-0.0323235,0.00117477,0.000315552,0.0111239,-0.0207785,0.00151638,0.000391045,-0.00840668
38,9,0,0,0,0,0,0,231.8,254,0,0,0,0,0,0,0,231.8,766,0,0.000196877,0.00148453,0.0010503,0.0163574,0.00842556,0.00155464,0.000530167,-1.86916e-06,0.0995887,0.000297394,0.00104034,0.0120013,-0.0202826,0.00178341,0.000886955,-0.00821594
39,0,0,0,0,0,0,0,231.8,254,0,0,0,0,0,0,0,231.8,766,0,0.0005402,0.00095047,0.000668831,0.0161285,0.00758633,0.00105873,0.00129311,0.000532188,0.00918037,0.0015181,0.00096405,0.0193637,-0.0205496,0.000906029,0.00020031,-0.0099707
39,1,0,0,0,0,0,0,231.8,254,0,0,0,0,0,0,0,231.8,766,0,0.0005402,0.000607147,-0.000551872,0.0162048,0.00846371,0.00056282,0.000835342,0.000341454,-0.0624215,3.03648e-05,-0.000104065,0.0129931,-0.0203589,0.000791588,0.000429192,-0.00813965
39,2,0,0,0,0,0,0,231.8,254,0,0,0,0,0,0,0,231.8,766,0,0.000845375,0.000797882,0.00127918,0.0144882,0.0102566,6.69097e-05,0.00144569,0.00026516,-0.00935905,0.00117477,0.00046814,0.0157779,-0.0203207,0.000410118,0.000619926,-0.00951294
39,3,0,0,0,0,0,0,231.8,254,0,0,0,0,0,0,0,231.8,766,0,0.000692788,0.000225677,0.000630684,0.0160522,0.012965,-0.000505295,0.00129311,0.000989952,0.0252402,0.000335541,0.000811462,0.0179904,-0.0201682,-0.000467262,0.000467339,-0.00966553
39,4,0,0,0,0,0,0,231.8,254,0,0,0,0,0,0,0,231.8,766,0,0.000883522,0.00117935,0.00143177,0.0163955,0.0154827,0.00132576,0.00098793,0.000646629,0.0674689,0.00128921,0.00145996,0.0193255,-0.0207404,0.000753441,0.00180248,-0.00852112
39,5,0,0,0,0,0,0,231.8,254,0,0,0,0,0,0,0,231.8,766,0,0.00103611,0.000225677,0.0010503,0.0162811,0.0134228,0.000715408,0.000759048,-0.000383339,-0.0552117,0.000640716,0.000277405,0.0200885,-0.0195578,0.00117306,0.000429192,-0.00958923
39,6,0,0,0,0,0,0,231.8,254,0,0,0,0,0,0,0,231.8,766,0,0.000387612,0.000454559,0.0010503,0.0169296,0.0120114,0.000486526,0.00102608,0.00106625,0.0350822,0.000945892,4.85228e-05,0.0155871,-0.0207404,0.000677147,0.00138287,-0.00783447
39,7,0,0,0,0,0,0,231.8,254,0,0,0,0,0,0,0,231.8,766,0,0.000311318,0.00194229,0.00108845,0.0159759,0.0123928,0.00163094,0.000568314,0.0010281,0.0618995,0.00205215,0.000658874,0.0154727,-0.0202063,0.0012875,0.00138287,-0.00783447
39,8,0,0,0,0,0,0,231.8,254,0,0,0,0,0,0,0,231.8,766,0,0.000730935,-0.000346527,0.00120289,0.0162811,0.012164,0.000753555,0.000415726,0.000951805,-0.0536095,0.00113663,-0.000638123,0.00856808,-0.0195197,0.00155453,0.000162163,-0.00848297
39,9,0,0,0,0,0,0,231.8,254,0,0,0,0,0,0,0,231.8,766,0,0.00130314,0.0012175,0.00150806,0.0173874,0.0131939,0.000829849,0.000415726,0.00076107,0.0382865,0.00109848,0.000391846,0.0116961,-0.0208929,0.000371971,0.00161175,-0.00806335
40,0,0,0,0,0,0,0,231.8,254,0,0,0,0,0,0,0,231.8,766,0,0.0011124,0.00095047,0.00116474,0.0167007,0.0142239,0.000906143,0.000530167,0.000684776,0.0771201,0.00121292,0.00241364,0.0164264,-0.0204352,0.000753441,0.00115398,-0.00844482
40,1,0,0,0,0,0,0,231.8,254,0,0,0,0,0,0,0,231.8,766,0,0.000425759,0.000683441,0.00127918,0.0163955,0.012164,0.00117317,0.000644607,-0.000726662,-0.0568139,0.000869598,0.000429993,0.0171511,-0.0205496,0.00105862,-0.000867805,-0.0081778
40,2,0,0,0,0,0,0,231.8,254,0,0,0,0,0,0,0,231.8,766,0,0.000921669,0.000530853,0.00124104,0.0164718,0.00934109,0.000448379,0.000186844,0.000112572,0.0370277,0.000488129,0.00046814,0.019707,-0.0215796,0.000410118,0.00164989,-0.00924591
40,3,0,0,0,0,0,0,231.8,254,0,0,0,0,0,0,0,231.8,766,0,8.2436e-05,-0.00019394,0.000211067,0.0163574,0.00358089,0.000639114,0.00133125,-0.000574074,0.0836433,-0.000274811,-0.000599976,0.0166934,-0.0203589,0.000600853,0.000467339,-0.0100851
40,4,0,0,0,0,0,0,231.8,254,0,0,0,0,0,0,0,231.8,766,0,-0.000604209,0.000759735,0.000897713,0.0155563,-0.000119362,0.000715408,7.24029e-05,-0.00049778,-0.0649773,0.000640716,1.03759e-05,0.0112002,-0.0208548,0.00117306,0.000810661,-0.00894073
40,5,0,0,0,0,0,0,231.8,254,0,0,0,0,0,0,0,231.8,766,0,0.000845375,0.000797882,0.000668831,0.0160522,-0.00328556,0.00117317,0.00148384,0.00106625,-0.0325524,0.00128921,0.000544433,0.00772884,-0.0206641,0.000867882,0.000848808,-0.00772003
40,6,0,0,0,0,0,0,231.8,254,0,0,0,0,0,0,0,231.8,766,0,0.00164646,0.00129379,0.00150806,0.0163574,-0.000386391,0.000639114,-0.000194626,0.000646629,-0.00695579,0.000831451,0.000391846,0.00933102,-0.0214651,0.00170712,-2.8572e-05,-0.00787262
40,7,0,0,0,0,0,0,231.8,254,0,0,0,0,0,0,0,231.8,766,0,0.00115055,0.000988617,0.00146992,0.0167007,-0.00130192,0.00124947,0.000797195,0.000684776,0.0702537,0.00182327,0.00207031,0.012955,-0.0206259,0.0012112,0.00123028,-0.00833038
40,8,0,0,0,0,0,0,231.8,254,0,0,0,0,0,0,0,231.8,766,0,0.00115055,0.000836029,0.00124104,0.0161666,-0.00229374,0.00132576,0.00217049,0.000913658,-0.0037896,0.000335541,0.00104034,0.0144809,-0.0198248,0.0012875,0.00069622,-0.00855927
40,9,0,0,0,0,0,0,231.8,254,0,0,0,0,0,0,0,231.8,766,0,0.00126499,0.000797882,0.00093586,0.0168151,0.000376549,0.00094429,0.000720901,0.00137142,-0.0363671,0.000182953,0.000925903,0.0152056,-0.0203207,0.000639,0.00195507,-0.00924591
41,0,0,0,0,0,0,0,231.8,254,0,0,0,0,0,0,0,231.8,766,0,0.00122685,0.00163712,0.00116474,0.0172729,0.000338402,0.00105873,0.00178902,0.000989952,0.0763953,0.000335541,0.000925903,0.0120395,-0.0214651,0.00109676,0.000848808,-0.00821594
41,1,0,0,0,0,0,0,231.8,254,0,0,0,0,0,0,0,231.8,766,0,0.000883522,0.00133194,0.00219471,0.0155944,-0.00187412,0.000677261,0.00140755,0.000646629,-0.0063073,0.00159439,0.00107849,0.0114291,-0.0198248,0.00189785,0.00187878,-0.0075293
41,2,0,0,0,0,0,0,231.8,254,0,0,0,0,0,0,0,231.8,766,0,0.000807228,-0.000232087,0.00124104,0.0169296,0.000147667,0.00128761,0.000644607,0.000989952,-0.0348031,0.00128921,0.00104034,0.0116198,-0.0197104,0.000944176,0.00195507,-0.00951294
41,3,0,0,0,0,0,0,231.8,254,0,0,0,0,0,0,0,231.8,766,0,0.000463906,0.00110306,0.00139362,0.0167007,-0.00233189,0.00136391,0.000949783,0.000913658,0.0912345,0.00125107,0.000391846,0.0120013,-0.0200919,0.000219383,0.000505486,-0.00707153
41,4,0,0,0,0,0,0,231.8,254,0,0,0,0,0,0,0,231.8,766,0,-0.000260887,-0.000537262,0.000592537,0.0153274,-0.00183598,0.000639114,3.42559e-05,-0.000154457,-0.00199669,0.000259247,0.000620727,0.0128787,-0.0213126,0.000639,0.000734367,-0.00829224
41,5,0,0,0,0,0,0,231.8,254,0,0,0,0,0,0,0,231.8,766,0,0.00107426,0.000530853,-0.000132256,0.0160141,0.00010952,0.000600967,0.000949783,0.000494041,-0.0389611,-0.000427399,0.000735168,0.0117724,-0.0207022,0.00102047,0.00069622,-0.00894073
41,6,0,0,0,0,0,0,231.8,254,0,0,0,0,0,0,0,231.8,766,0,0.00107426,0.000683441,0.00135548,0.0158615,0.00224575,0.000715408,0.00117867,0.000608482,0.0950492,0.00132736,-0.00121033,0.0123446,-0.0202063,0.000524559,0.000658073,-0.00791077
41,7,0,0,0,0,0,0,231.8,254,0,0,0,0,0,0,0,231.8,766,0,4.4289e-05,-0.000346527,-0.00032299,0.0163955,0.00274166,0.000486526,-3.89107e-06,0.000951805,0.00387795,-8.40761e-05,-0.0002948,0.0119632,-0.0211981,0.000524559,0.00107769,-0.0075293
41,8,0,0,0,0,0,0,231.8,254,0,0,0,0,0,0,0,231.8,766,0,0.000235024,0.001866,0.000439949,0.0163574,0.00270351,0.000410232,0.00129311,7.44248e-05,-0.068792,0.00102219,0.000811462,0.0129931,-0.0212744,0.000867882,-2.8572e-05,-0.00855927
41,9,0,0,0,0,0,0,231.8,254,0,0,0,0,0,0,0,231.8,766,0,0.000845375,7.30893e-05,0.000745125,0.0157089,0.00255093,0.000639114,0.000339432,-1.86916e-06,-0.0141656,0.000335541,-0.000447388,0.012955,-0.0203589,0.00109676,0.000848808,-0.00829224
42,0,0,0,0,0,0,0,231.8,254,0,0,0,0,0,0,0,231.8,766,0,0.000959816,0.000340118,0.00055439,0.0169296,0.00323757,0.000753555,0.000530167,0.000989952,0.023104,-0.00016037,0.000315552,0.0149005,-0.0200537,0.00124935,0.00058178,-0.00756744
42,1,0,0,0,0,0,0,231.8,254,0,0,0,0,0,0,0,231.8,766,0,0.0005402,0.00129379,0.00127918,0.0161285,0.00255093,0.00132576,0.00152199,0.0010281,0.0674308,0.000907745,0.000620727,0.0170367,-0.0199011,0.00178341,0.00130657,-0.00920776
42,2,0,0,0,0,0,0,231.8,254,0,0,0,0,0,0,0,231.8,766,0,0.000616494,0.000721588,0.00150806,0.0155563,0.00445827,0.00056282,0.000682754,0.000837364,-0.0606286,0.000602569,0.000506287,0.0128787,-0.0216559,0.00117306,0.00126843,-0.00825409
42,3,0,0,0,0,0,0,231.8,254,0,0,0,0,0,0,0,231.8,766,0,0.000997963,0.00140823,0.000401802,0.0170822,0.00216946,0.000677261,0.00114052,0.00110439,0.027758,0.000793304,0.00126923,0.0123065,-0.0195578,0.00147823,0.00149731,-0.00821594
42,4,0,0,0,0,0,0,231.8,254,0,0,0,0,0,0,0,231.8,766,0,-0.00022274,0.000645294,0.00131733,0.0164718,0.0040768,0.00117317,0.000568314,0.00076107,0.0597633,0.000869598,0.000735168,0.0137942,-0.0206641,0.00136379,0.00164989,-0.00741486
42,5,0,0,0,0,0,0,231.8,254,0,0,0,0,0,0,0,231.8,766,0,0.00126499,0.000683441,0.00093586,0.0159378,0.00419125,0.000829849,0.00121681,0.000608482,-0.0575387,0.00159439,0.00115479,0.0155108,-0.0202826,0.00159267,0.00241283,-0.0081778
42,6,0,0,0,0,0,0,231.8,254,0,0,0,0,0,0,0,231.8,766,0,0.0005402,0.000645294,0.00135548,0.0161285,0.00442013,0.00174538,0.000453873,0.00137142,0.0352729,0.0014418,0.00104034,0.015816,-0.0204352,0.00155453,0.000162163,-0.00840668
42,7,0,0,0,0,0,0,231.8,254,0,0,0,0,0,0,0,231.8,766,0,0.000654641,0.00144638,0.00124104,0.0169677,0.00365719,0.000829849,0.000759048,0.000150719,0.0755943,6.85118e-05,0.000124817,0.0138705,-0.0215796,0.00136379,0.0010014,-0.00886444
42,8,0,0,0,0,0,0,231.8,254,0,0,0,0,0,0,0,231.8,766,0,0.00137943,0.00133194,0.00150806,0.016777,0.0022076,0.000372085,-4.2038e-05,0.000799217,-0.0599038,0.000411835,0.00126923,0.0148623,-0.0218466,0.00109676,-6.6719e-05,-0.00825409
42,9,0,0,0,0,0,0,231.8,254,0,0,0,0,0,0,0,231.8,766,0,0.000845375,-3.20468e-06,0.000897713,0.0160141,-4.30678e-05,0.000448379,0.000911636,0.000150719,0.0354255,-4.59291e-05,0.000849609,0.0151294,-0.0213889,0.000867882,0.00142101,-0.00970367
43,0,0,0,0,0,0,0,231.8,254,0,0,0,0,0,0,0,231.8,766,0,0.000883522,0.000454559,0.000287361,0.0173492,0.00182613,0.00132576,0.00110237,0.000608482,0.0833762,0.000907745,0.000697021,0.0208895,-0.0199011,0.00174526,0.00130657,-0.00836853
43,1,0,0,0,0,0,0,231.8,254,0,0,0,0,0,0,0,231.8,766,0,0.00126499,0.00106491,0.000478096,0.0168151,0.00102505,0.00117317,0.00102608,0.000837364,-0.0671136,0.000182953,0.000849609,0.0200122,-0.0199393,0.00140194,0.00168804,-0.00905518
43,2,0,0,0,0,0,0,231.8,254,0,0,0,0,0,0,0,231.8,766,0,0.000921669,0.000836029,0.000211067,0.0160141,0.00388607,0.000677261,0.000148697,0.000837364,-0.0328194,-0.000465546,0.00115479,0.0203555,-0.0203589,0.000677147,0.000391045,-0.00901703
43,3,0,0,0,0,0,0,231.8,254,0,0,0,0,0,0,0,231.8,766,0,0.0011887,0.000530853,0.000211067,0.0163955,0.00453457,0.00113502,0.000453873,0.000875511,-0.0093972,0.000831451,-0.000561829,0.0184863,-0.0192908,0.00117306,-0.000295601,-0.0081778
43,4,0,0,0,0,0,0,231.8,254,0,0,0,0,0,0,0,231.8,766,0,0.0011887,0.00095047,0.00112659,0.0162811,0.00182613,0.00163094,0.000530167,0.000608482,0.07033,0.000488129,8.66698e-05,0.0141375,-0.0221899,0.00159267,0.00069622,-0.00894073
43,5,0,0,0,0,0,0,231.8,254,0,0,0,0,0,0,0,231.8,766,0,0.000997963,0.0012175,0.00200397,0.0182266,0.00346645,0.000639114,0.000644607,0.000684776,-0.00150078,0.00178513,0.00130737,0.0186389,-0.0197485,0.00227932,0.00164989,-0.00848297
43,6,0,0,0,0,0,0,231.8,254,0,0,0,0,0,0,0,231.8,766,0,0.00172276,0.0012175,0.000897713,0.0170822,0.000910606,0.00140205,0.00098793,0.00114254,-0.0396096,-0.00016037,0.00115479,0.0159304,-0.0209692,0.000829735,0.00107769,-0.00783447
43,7,0,0,0,0,0,0,231.8,254,0,0,0,0,0,0,0,231.8,766,0,0.000769082,0.000797882,0.00127918,0.0167389,0.000605431,0.00170723,0.00110237,0.000455895,0.0787605,0.000564422,1.03759e-05,0.0127261,-0.0202826,0.00147823,0.00020031,-0.00802521
43,8,0,0,0,0,0,0,231.8,254,0,0,0,0,0,0,0,231.8,766,0,0.00137943,0.000797882,0.00101215,0.0171585,0.000948753,0.000982437,0.000568314,0.00129513,-0.00867241,0.00170883,0.00134552,0.016846,-0.0210455,0.00136379,0.000772514,-0.00897888
43,9,0,0,0,0,0,0,231.8,254,0,0,0,0,0,0,0,231.8,766,0,0.000845375,0.0012175,0.00131733,0.0164337,0.00209316,0.00124947,0.000644607,0.00110439,-0.0357568,0.000488129,0.000162964,0.0165789,-0.0205115,0.00113491,0.00134472,-0.00833038
44,0,0,0,0,0,0,0,231.8,254,0,0,0,0,0,0,0,231.8,766,0,0.000845375,0.00133194,0.00017292,0.0169677,0.00422939,0.0014402,0.00125496,0.00133327,0.090853,-0.000236664,0.00111664,0.014519,-0.0199011,0.00124935,0.00145916,-0.00855927
44,1,0,0,0,0,0,0,231.8,254,0,0,0,0,0,0,0,231.8,766,0,0.0005402,0.000874176,0.00112659,0.0162048,0.00346645,0.000715408,0.000568314,3.62778e-05,-0.00268333,3.03648e-05,0.000391846,0.0123828,-0.0215796,0.0012112,0.00134472,-0.00863556
44,2,0,0,0,0,0,0,231.8,254,0,0,0,0,0,0,0,231.8,766,0,0.000349465,0.000721588,0.00055439,0.0168914,0.00503048,0.000143204,-8.0185e-05,0.00121883,-0.0386559,0.000564422,-2.77711e-05,0.0104373,-0.0213889,0.00155453,0.00058178,-0.00852112
44,3,0,0,0,0,0,0,231.8,254,0,0,0,0,0,0,0,231.8,766,0,0.000807228,0.000759735,0.00112659,0.0175018,0.00571712,0.00124947,0.00110237,0.0010281,0.0945914,0.00117477,0.00145996,0.0127261,-0.0217322,0.000486412,0.00145916,-0.00840668
44,4,0,0,0,0,0,0,231.8,254,0,0,0,0,0,0,0,231.8,766,0,-0.000337181,0.000569,0.00135548,0.0170822,0.00518307,0.00147835,0.00133125,0.000227013,0.0038398,0.000945892,0.00046814,0.0165408,-0.0192526,0.00136379,0.000658073,-0.00833038
44,5,0,0,0,0,0,0,231.8,254,0,0,0,0,0,0,0,231.8,766,0,0.00115055,-0.000117646,0.000401802,0.0164718,0.00499233,0.00124947,0.00121681,0.000379601,-0.0701653,0.000869598,0.000544433,0.0152819,-0.0205115,0.0012112,0.00119213,-0.00951294
44,6,0,0,0,0,0,0,231.8,254,0,0,0,0,0,0,0,231.8,766,0,0.00015873,0.000759735,0.000211067,0.0164718,0.00979885,0.00102058,3.42559e-05,0.000455895,-0.0150811,0.000564422,0.000544433,0.017113,-0.0208167,0.000333824,0.000772514,-0.0093985
44,7,0,0,0,0,0,0,231.8,254,0,0,0,0,0,0,0,231.8,766,0,0.00107426,0.0012175,0.000249214,0.0163192,0.0125454,0.000524673,0.00110237,0.00026516,0.0396217,0.000640716,-0.00121033,0.021538,-0.0201682,0.000562706,0.0015736,-0.00890259
44,8,0,0,0,0,0,0,231.8,254,0,0,0,0,0,0,0,231.8,766,0,0.000921669,0.000492706,0.00093586,0.0162811,0.0128125,0.000486526,0.000644607,0.000188866,0.193316,0.000259247,-0.0002948,0.022301,-0.0209692,0.000333824,0.000963249,-0.00878815
44,9,0,0,0,0,0,0,231.8,254,0,0,0,0,0,0,0,231.8,766,0,0.000235024,0.00110306,0.000859566,0.0167389,0.0124691,0.000448379,0.000682754,0.000951805,0.179507,0.00132736,0.00134552,0.0209658,-0.0207785,0.00147823,0.000772514,-0.00859741
45,0,0,0,0,0,0,0,231.8,254,0,0,0,0,0,0,0,231.8,766,0,0.000997963,0.000912323,0.000134773,0.0171585,0.0125454,0.000829849,0.000415726,0.00148586,0.142771,-0.000122223,-0.000142212,0.0187915,-0.0213507,0.00163082,0.000619926,-0.0093985
45,1,0,0,0,0,0,0,231.8,254,0,0,0,0,0,0,0,231.8,766,0,0.000349465,0.000492706,0.000516243,0.0164718,0.00800594,0.00132576,0.000873489,-0.000192604,0.0111259,0.000945892,-0.000218506,0.0114291,-0.0210455,0.000677147,0.00149731,-0.00798706
45,2,0,0,0,0,0,0,231.8,254,0,0,0,0,0,0,0,231.8,766,0,0.00137943,0.000721588,0.00101215,0.0164718,0.0106381,0.000867996,-3.89107e-06,0.000227013,-0.135473,0.000945892,0.000620727,0.00437191,-0.0204733,0.00113491,0.000886955,-0.00882629
45,3,0,0,0,0,0,0,231.8,254,0,0,0,0,0,0,0,231.8,766,0,0.00107426,0.000645294,0.000439949,0.0177307,0.0091885,0.00113502,0.000644607,0.000227013,-0.0127923,0.000869598,0.00104034,0.000290184,-0.0200919,0.000944176,0.00115398,-0.00798706
45,4,0,0,0,0,0,0,231.8,254,0,0,0,0,0,0,0,231.8,766,0,0.000235024,0.000492706,0.000668831,0.015747,0.00777706,0.00121132,-3.89107e-06,0.000379601,0.0272239,-0.000198517,0.000239258,0.00128201,-0.0203589,0.000867882,0.00168804,-0.00768188
45,5,0,0,0,0,0,0,231.8,254,0,0,0,0,0,0,0,231.8,766,0,0.0005402,0.000645294,0.00055439,0.0159378,0.00945553,0.000600967,-0.000461655,0.000112572,-0.111707,0.000564422,1.03759e-05,0.00173977,-0.0217322,0.000410118,0.00123028,-0.00890259
45,6,0,0,0,0,0,0,231.8,254,0,0,0,0,0,0,0,231.8,766,0,0.00141758,0.000607147,0.000897713,0.0169296,0.0101422,0.00132576,0.000148697,0.000112572,-0.00577324,0.000526275,0.00115479,0.00688961,-0.0203589,0.00189785,-0.000715218,-0.0081015
45,7,0,0,0,0,0,0,231.8,254,0,0,0,0,0,0,0,231.8,766,0,0.000807228,0.00095047,0.000706978,0.01651,0.00899776,0.000982437,0.00125496,0.000532188,0.0450767,0.000144806,0.000277405,0.010628,-0.0203589,0.000829735,0.000429192,-0.00890259
45,8,0,0,0,0,0,0,231.8,254,0,0,0,0,0,0,0,231.8,766,0,0.000616494,0.000797882,0.00116474,0.01651,0.00640377,0.00121132,0.000263138,0.000150719,-0.103162,0.00071701,0.00153625,0.0171893,-0.0191,0.00178341,0.00138287,-0.00840668
45,9,0,0,0,0,0,0,231.8,254,0,0,0,0,0,0,0,231.8,766,0,0.000463906,0.00152267,0.000974007,0.0156707,0.00857815,0.00193611,0.000186844,0.000150719,-0.062803,0.000373688,0.000124817,0.0205462,-0.02116,0.000410118,0.00126843,-0.00806335
46,0,0,0,0,0,0,0,231.8,254,0,0,0,0,0,0,0,231.8,766,0,0.00115055,-0.000155793,0.000287361,0.0160522,0.00319942,0.000410232,0.00117867,0.000799217,-0.0347649,-0.00111404,0.000239258,0.0230258,-0.0202063,0.00151638,0.00149731,-0.00909332
46,1,0,0,0,0,0,0,231.8,254,0,0,0,0,0,0,0,231.8,766,0,0.000616494,3.49423e-05,0.000287361,0.0160904,0.00262722,-9.38424e-06,0.000835342,0.000112572,0.0457252,0.000678863,0.00058258,0.0235598,-0.0210074,0.000791588,0.00115398,-0.00970367
46,2,0,0,0,0,0,0,231.8,254,0,0,0,0,0,0,0,231.8,766,0,0.000692788,0.00106491,-0.000170403,0.0156707,0.00365719,0.000257645,-0.0011483,0.00026516,-0.0257623,-0.000465546,0.000391846,0.0258868,-0.0218848,-0.000963173,0.00058178,-0.00863556
46,3,0,0,0,0,0,0,231.8,254,0,0,0,0,0,0,0,231.8,766,0,0.000311318,-0.000232087,0.000211067,0.0161666,0.00380978,-0.000276413,0.000263138,7.44248e-05,-0.0514733,0.000488129,0.00058258,0.022835,-0.0200919,0.000867882,-0.00121113,-0.00936035
46,4,0,0,0,0,0,0,231.8,254,0,0,0,0,0,0,0,231.8,766,0,4.4289e-05,0.0011412,0.000745125,0.0149841,0.00422939,0.00109688,0.000186844,0.000608482,0.0650275,-4.59291e-05,8.66698e-05,0.0192111,-0.0213507,0.000104942,0.00115398,-0.00951294
46,5,0,0,0,0,0,0,231.8,254,0,0,0,0,0,0,0,231.8,766,0,0.000463906,0.000683441,0.000668831,0.0158233,0.00468716,0.000486526,0.000835342,0.000455895,-0.0195824,-0.000732575,0.000506287,0.0214236,-0.0203589,0.000982323,0.000886955,-0.00886444
46,6,0,0,0,0,0,0,231.8,254,0,0,0,0,0,0,0,231.8,766,0,0.000578347,0.000759735,-0.000246697,0.0156707,0.00541195,0.000791702,0.000682754,0.000303307,-0.0393807,-0.000579987,-0.000638123,0.0189822,-0.0207022,0.000104942,0.000352898,-0.00714783
46,7,0,0,0,0,0,0,231.8,254,0,0,0,0,0,0,0,231.8,766,0,0.000654641,0.000492706,0.00108845,0.0160141,0.00422939,0.00128761,-0.000232773,3.62778e-05,0.085131,0.00159439,0.000887756,0.0117724,-0.0218085,0.000524559,0.000619926,-0.00806335
46,8,0,0,0,0,0,0,231.8,254,0,0,0,0,0,0,0,231.8,766,0,0.000311318,7.30893e-05,-0.000170403,0.0156707,0.00426754,-8.56782e-05,3.42559e-05,-0.000230751,-0.0037133,0.000907745,-0.000104065,0.0179522,-0.0200919,0.000906029,-0.00018116,-0.00825409
46,9,0,0,0,0,0,0,231.8,254,0,0,0,0,0,0,0,231.8,766,0,0.0005402,-0.000270233,0.000706978,0.0163574,0.00506863,0.000791702,0.000186844,0.000379601,-0.0375497,0.000411835,-0.000142212,0.0185626,-0.0197867,2.86484e-05,0.00180248,-0.00791077
47,0,0,0,0,0,0,0,231.8,254,0,0,0,0,0,0,0,231.8,766,0,0.000502053,0.00156082,0.000821419,0.0153656,0.00564083,0.000982437,0.00117867,-7.81631e-05,0.0953544,3.03648e-05,-0.000104065,0.0103228,-0.0204733,0.000600853,0.000619926,-0.0093985
47,1,0,0,0,0,0,0,231.8,254,0,0,0,0,0,0,0,231.8,766,0,0.00107426,-7.94986e-05,0.00120289,0.0158615,0.00392422,0.00094429,0.000453873,0.000227013,0.00467903,0.00128921,0.000162964,0.0109332,-0.0204733,0.00147823,0.000543633,-0.00833038
47,2,0,0,0,0,0,0,231.8,254,0,0,0,0,0,0,0,231.8,766,0,0.000578347,0.00106491,-1.78147e-05,0.0158233,0.00358089,0.00121132,-0.000194626,0.000989952,-0.064367,-0.000503693,0.00046814,0.0162738,-0.0203589,0.000104942,-2.8572e-05,-0.00783447
47,3,0,0,0,0,0,0,231.8,254,0,0,0,0,0,0,0,231.8,766,0,0.00122685,0.000569,5.84793e-05,0.0159759,0.00266537,0.00094429,0.00148384,-4.00161e-05,-0.00958794,0.00071701,0.000201111,0.0154727,-0.0207785,0.00105862,-0.000295601,-0.00962738
47,4,0,0,0,0,0,0,231.8,254,0,0,0,0,0,0,0,231.8,766,0,0.000959816,-0.000384674,0.000783272,0.0155944,0.00297054,0.000982437,7.24029e-05,-0.000383339,0.0253547,0.000106659,0.00126923,0.0170749,-0.0210074,0.000639,0.0010014,-0.0081015
47,5,0,0,0,0,0,0,231.8,254,0,0,0,0,0,0,0,231.8,766,0,0.000502053,0.000607147,-0.000284843,0.0158233,0.000872459,-0.000390854,0.000568314,0.00026516,0.0670493,3.03648e-05,0.000735168,0.0126498,-0.0219229,-4.76455e-05,-0.000448189,-0.00958923
47,6,0,0,0,0,0,0,231.8,254,0,0,0,0,0,0,0,231.8,766,0,-0.000527916,-0.000346527,0.000821419,0.0158233,-0.000119362,0.000333939,0.000148697,-0.000421486,-0.0525033,0.000335541,-0.000638123,0.014252,-0.0208929,0.00113491,0.00103954,-0.0093222
47,7,0,0,0,0,0,0,231.8,254,0,0,0,0,0,0,0,231.8,766,0,0.000502053,0.000988617,-0.000246697,0.0158996,0.00113949,0.000867996,0.000263138,-1.86916e-06,0.0347388,0.00136551,1.03759e-05,0.0161593,-0.0205878,0.000906029,0.00107769,-0.00913147
47,8,0,0,0,0,0,0,231.8,254,0,0,0,0,0,0,0,231.8,766,0,0.000921669,0.000416412,0.00158436,0.0165863,0.00621304,0.000715408,0.00163643,0.00110439,0.0646461,0.00071701,0.000925903,0.0166552,-0.0197104,0.000600853,0.00203136,-0.00901703
47,9,0,0,0,0,0,0,231.8,254,0,0,0,0,0,0,0,231.8,766,0,0.0005402,0.00102676,0.00124104,0.0165481,0.00800594,0.00121132,0.000568314,0.000570335,-0.0482308,0.0015181,0.00119293,0.0163119,-0.0203589,0.0012875,0.00176434,-0.00794891
48,0,0,0,0,0,0,0,231.8,254,0,0,0,0,0,0,0,231.8,766,0,0.00107426,0.0011412,0.00139362,0.0156707,0.00628933,0.00163094,0.00197975,0.000837364,0.0414909,0.000373688,0.000887756,0.015816,-0.0211218,0.000600853,0.00168804,-0.00913147
48,1,0,0,0,0,0,0,231.8,254,0,0,0,0,0,0,0,231.8,766,0,0.000235024,0.000607147,0.00108845,0.0152893,0.00648006,0.000867996,0.000148697,0.00076107,0.0807059,0.00102219,-0.000638123,0.0162356,-0.0200537,0.000486412,0.000162163,-0.00890259
48,2,0,0,0,0,0,0,231.8,254,0,0,0,0,0,0,0,231.8,766,0,0.000921669,0.00018753,0.00017292,0.0160141,0.00625118,0.000410232,0.000568314,0.000227013,-0.051664,0.000640716,0.000544433,0.0177233,-0.0203207,-0.000352821,0.000543633,-0.00897888
48,3,0,0,0,0,0,0,231.8,254,0,0,0,0,0,0,0,231.8,766,0,4.4289e-05,-0.000232087,-5.59617e-05,0.0160141,0.00621304,0.000257645,0.000644607,-4.00161e-05,0.0397361,0.000831451,1.03759e-05,0.0145572,-0.0208167,0.000295677,0.00103954,-0.00924591
48,4,0,0,0,0,0,0,231.8,254,0,0,0,0,0,0,0,231.8,766,0,0.000502053,0.000683441,5.84793e-05,0.0157852,0.00384792,0.000867996,-3.89107e-06,0.000417748,0.0869621,0.000564422,4.85228e-05,0.0126117,-0.0215414,0.000791588,0.000925102,-0.00825409
48,5,0,0,0,0,0,0,231.8,254,0,0,0,0,0,0,0,231.8,766,0,0.000921669,0.000912323,0.000325508,0.0153274,0.00369534,-0.000581589,0.000263138,0.000608482,-0.0596368,0.00071701,-0.000332947,0.0144809,-0.0209692,0.000410118,0.000162163,-0.00970367
48,6,0,0,0,0,0,0,231.8,254,0,0,0,0,0,0,0,231.8,766,0,0.000845375,0.000340118,0.00131733,0.0164718,0.00331387,0.00132576,0.00117867,0.000227013,-0.0266015,0.00159439,0.000277405,0.0145953,-0.0197104,0.00124935,0.000238457,-0.00878815
48,7,0,0,0,0,0,0,231.8,254,0,0,0,0,0,0,0,231.8,766,0,0.00107426,0.00117935,0.00055439,0.0155182,0.00621304,6.69097e-05,0.00106422,0.000570335,-0.00356071,0.000945892,0.00115479,0.0116961,-0.021694,0.00102047,0.00130657,-0.00806335
48,8,0,0,0,0,0,0,231.8,254,0,0,0,0,0,0,0,231.8,766,0,0.000463906,0.00117935,0.00154621,0.017044,0.00373348,0.00117317,0.0013694,0.000112572,0.0696815,0.00155624,0.00104034,0.0133364,-0.02013,0.0018597,-0.00018116,-0.00958923
48,9,0,0,0,0,0,0,231.8,254,0,0,0,0,0,0,0,231.8,766,0,0.00015873,0.000683441,0.000630684,0.0162429,0.00396236,0.00170723,0.000530167,0.000913658,-0.00047081,0.0015181,0.000391846,0.0166934,-0.0199774,0.00182156,0.00210766,-0.00791077
49,0,0,0,0,0,0,0,231.8,254,0,0,0,0,0,0,0,231.8,766,0,0.00198978,0.000797882,0.000897713,0.0165481,0.0022839,0.000639114,0.00133125,0.00106625,-0.0322472,0.000945892,1.03759e-05,0.0142901,-0.0205115,-9.49856e-06,0.000886955,-0.00695709
49,1,0,0,0,0,0,0,231.8,254,0,0,0,0,0,0,0,231.8,766,0,0.000616494,0.000340118,0.00120289,0.0157089,0.00049099,0.000906143,0.000568314,0.00026516,0.0790656,0.000449982,0.00123108,0.0128024,-0.0200156,0.0012875,0.00103954,-0.00875
49,2,0,0,0,0,0,0,231.8,254,0,0,0,0,0,0,0,231.8,766,0,0.000311318,0.000149383,0.000592537,0.0141067,3.32261e-05,0.000219498,0.000415726,0.000494041,-0.00443809,0.000449982,1.03759e-05,0.0101321,-0.02116,0.000753441,0.000772514,-0.00947479
49,3,0,0,0,0,0,0,231.8,254,0,0,0,0,0,0,0,231.8,766,0,0.000692788,7.30893e-05,0.00017292,0.0161285,0.000147667,-0.000200119,0.000339432,-0.000535927,-0.0318658,0.00071701,-0.00113403,0.0125354,-0.0220374,6.67954e-05,-0.00144001,-0.00737671
49,4,0,0,0,0,0,0,231.8,254,0,0,0,0,0,0,0,231.8,766,0,-0.000299034,0.00018753,0.000211067,0.0155944,0.00346645,0.000181351,0.000263138,-7.81631e-05,0.0921882,0.000526275,8.66698e-05,0.0125735,-0.0207404,0.000867882,0.000886955,-0.00813965
49,5,0,0,0,0,0,0,231.8,254,0,0,0,0,0,0,0,231.8,766,0,0.000235024,0.000836029,9.66262e-05,0.0163192,0.00140652,0.00109688,0.000263138,0.000532188,0.000177689,0.000259247,0.00046814,0.0138324,-0.0213126,0.000982323,0.000925102,-0.00894073
49,6,0,0,0,0,0,0,231.8,254,0,0,0,0,0,0,0,231.8,766,0,0.000578347,0.000912323,0.00017292,0.0149459,-0.000996742,0.000410232,0.00121681,-0.000154457,-0.0347268,0.000297394,1.03759e-05,0.0107806,-0.0199011,0.000944176,-6.6719e-05,-0.00894073
49,7,0,0,0,0,0,0,231.8,254,0,0,0,0,0,0,0,231.8,766,0,0.00015873,-3.20468e-06,-5.59617e-05,0.0154037,-0.000844154,-0.000581589,-0.000156479,-0.00011631,0.0951255,0.000526275,-0.00109589,0.0109332,-0.0214651,-0.000390968,0.00115398,-0.00863556
49,8,0,0,0,0,0,0,231.8,254,0,0,0,0,0,0,0,231.8,766,0,0.0011124,7.30893e-05,-0.000132256,0.015747,-0.000882301,-4.75312e-05,0.00133125,0.000303307,0.00475533,0.000907745,-0.0002948,0.0105136,-0.0218085,0.000982323,0.000505486,-0.00882629
49,9,0,0,0,0,0,0,231.8,254,0,0,0,0,0,0,0,231.8,766,0,0.000616494,0.000836029,0.000706978,0.0154419,-0.000729713,-9.38424e-06,0.00125496,0.000150719,-0.0649392,0.000526275,-0.000752564,0.0110858,-0.0211218,0.000524559,8.58689e-05,-0.00829224
50,0,0,0,0,0,0,0,231.8,254,0,0,0,0,0,0,0,231.8,766,0,0.00107426,0.000874176,0.00101215,0.0165863,-0.000806007,0.000295792,-8.0185e-05,0.000913658,-0.0124871,0.000564422,0.000735168,0.0117724,-0.0207785,0.000219383,0.000848808,-0.00794891
50,1,0,0,0,0,0,0,231.8,254,0,0,0,0,0,0,0,231.8,766,0,0.000196877,0.000454559,0.000401802,0.0162811,-0.00221745,0.00056282,0.000911636,0.000379601,0.0208152,0.00106033,0.000162964,0.0100177,-0.02013,0.000486412,0.000314751,-0.00913147
50,2,0,0,0,0,0,0,231.8,254,0,0,0,0,0,0,0,231.8,766,0,0.00107426,0.0017897,0.00120289,0.0161285,-0.00221745,0.000829849,0.000415726,0.000875511,0.0659812,0.00071701,0.000925903,0.0118106,-0.0209692,0.00105862,0.00172619,-0.00768188
50,3,0,0,0,0,0,0,231.8,254,0,0,0,0,0,0,0,231.8,766,0,0.000730935,0.000759735,0.000439949,0.0167007,-0.00362888,0.000791702,0.00167458,0.00129513,-0.0577676,0.00132736,0.000658874,0.0134509,-0.0197485,0.00136379,0.00180248,-0.00852112
50,4,0,0,0,0,0,0,231.8,254,0,0,0,0,0,0,0,231.8,766,0,8.2436e-05,0.000416412,0.00150806,0.016777,-0.00298038,0.00140205,0.00148384,0.000532188,0.0289405,0.00128921,0.000697021,0.010895,-0.0206641,0.00170712,0.00164989,-0.00787262
50,5,0,0,0,0,0,0,231.8,254,0,0,0,0,0,0,0,231.8,766,0,0.00130314,0.000721588,-0.000284843,0.0161285,-0.00294224,0.000486526,0.000682754,0.000608482,0.0602592,0.000564422,0.00123108,0.0152056,-0.0199774,0.00178341,0.00164989,-0.00749115
50,6,0,0,0,0,0,0,231.8,254,0,0,0,0,0,0,0,231.8,766,0,0.000502053,3.49423e-05,0.000745125,0.0161666,-0.00626102,0.00109688,0.00098793,0.000608482,-0.055021,0.000144806,0.000162964,0.0192111,-0.0210074,0.000867882,0.000658073,-0.00760559
50,7,0,0,0,0,0,0,231.8,254,0,0,0,0,0,0,0,231.8,766,0,0.000387612,0.000263824,0.000668831,0.0158233,-0.00626102,2.87627e-05,-0.000309067,0.00026516,0.0353111,-0.000999603,0.000391846,0.0165408,-0.0213126,0.000104942,0.000886955,-0.0081015
50,8,0,0,0,0,0,0,231.8,254,0,0,0,0,0,0,0,231.8,766,0,0.000463906,-0.000499115,0.000592537,0.0167389,-0.00614658,0.000372085,0.00144569,-7.81631e-05,0.0745261,0.000564422,0.00096405,0.0136416,-0.0207785,0.000944176,0.000391045,-0.00894073
50,9,0,0,0,0,0,0,231.8,254,0,0,0,0,0,0,0,231.8,766,0,0.00015873,0.000988617,0.00158436,0.0155944,-0.0052692,0.0014402,0.00106422,0.00076107,-0.0588357,0.00102219,0.00058258,0.00852993,-0.0208548,0.000677147,0.0010014,-0.00897888
51,0,0,0,0,0,0,0,231.8,254,0,0,0,0,0,0,0,231.8,766,0,-3.20049e-05,-0.000117646,-0.000475578,0.0156326,-0.00263706,0.000372085,0.000224991,0.000837364,0.034777,0.000640716,0.000697021,0.0149386,-0.021694,0.000448265,0.000963249,-0.00894073
51,1,0,0,0,0,0,0,231.8,254,0,0,0,0,0,0,0,231.8,766,0,0.000235024,-0.00068985,0.000363655,0.0147552,-0.000691566,-0.000276413,0.000720901,-0.000230751,0.0818122,0.000106659,-0.000790711,0.0169986,-0.0217322,0.000143089,8.58689e-05,-0.00909332
51,2,0,0,0,0,0,0,231.8,254,0,0,0,0,0,0,0,231.8,766,0,0.000349465,0.000797882,0.000668831,0.0161285,-0.000424538,0.00056282,0.000797195,0.000646629,-0.0656258,0.00186142,0.000391846,0.0166934,-0.0212363,0.000486412,0.000505486,-0.00836853
51,3,0,0,0,0,0,0,231.8,254,0,0,0,0,0,0,0,231.8,766,0,0.000578347,0.000874176,0.000630684,0.0162811,0.00258907,0.000715408,0.00110237,0.000799217,-0.0331628,0.00140366,1.03759e-05,0.0157016,-0.0217322,0.00170712,0.000772514,-0.0081015
51,4,0,0,0,0,0,0,231.8,254,0,0,0,0,0,0,0,231.8,766,0,0.000311318,0.00133194,0.000287361,0.0153656,0.0054501,0.00121132,-3.89107e-06,0.00076107,-0.00737541,0.000640716,-0.00124847,0.0117724,-0.0207404,0.00105862,0.00119213,-0.00783447
51,5,0,0,0,0,0,0,231.8,254,0,0,0,0,0,0,0,231.8,766,0,0.000273171,0.000530853,0.000668831,0.0168151,0.00781521,0.000639114,0.00156013,0.00110439,0.0715888,0.000411835,0.00134552,0.0121157,-0.0211981,0.00151638,0.00115398,-0.00955109
51,6,0,0,0,0,0,0,231.8,254,0,0,0,0,0,0,0,231.8,766,0,0.00122685,0.000759735,0.000592537,0.0164337,0.00922665,0.00124947,0.00182716,-0.000154457,-0.00489586,0.00109848,0.000697021,0.0152438,-0.0200156,0.00132565,0.00130657,-0.00836853
