Devices
1000
,,North - Force,,,North - Moment,,,North - CoP,,,South - Force,,,South - Moment,,,South - CoP,,,EMG - Voltage,,,,,,,,,,,,,,,,
Frame,Sub Frame,Fx,Fy,Fz,Mx,My,Mz,Cx,Cy,Cz,Fx,Fy,Fz,Mx,My,Mz,Cx,Cy,Cz,1,2,3,TA,5,Sol,7,8,VL,RF,BF,GlutMed,GlutMax,14,MedGast,16
,,N,N,N,N.mm,N.mm,N.mm,mm,mm,mm,N,N,N,N.mm,N.mm,N.mm,mm,mm,mm,V,V,V,V,V,V,V,V,V,V,V,V,V,V,V,V
1,0,0,0,0,0,0,0,231.8,254,0,0,0,0,0,0,0,231.8,766,0,-0.00022274,0.000797882,0.000859566,0.0155563,-4.92088e-06,-4.75312e-05,0.000530167,0.000684776,-0.0193536,3.03648e-05,-0.000371094,0.012955,-0.0213507,6.67954e-05,0.00142101,-0.00859741
1,1,0,0,0,0,0,0,231.8,254,0,0,0,0,0,0,0,231.8,766,0,0.000196877,0.000340118,0.000745125,0.0163192,0.00171169,0.000410232,0.00098793,0.000951805,-0.0231301,0.000449982,0.0010022,0.0128024,-0.021427,0.000524559,0.00126843,-0.00836853
1,2,0,0,0,0,0,0,231.8,254,0,0,0,0,0,0,0,231.8,766,0,0.000692788,0.0011412,0.000325508,0.0158615,0.00354275,0.000333939,-0.00118645,-0.000268898,0.0922263,0.000335541,0.000391846,0.013489,-0.0208929,0.000982323,0.0015736,-0.0101233
1,3,0,0,0,0,0,0,231.8,254,0,0,0,0,0,0,0,231.8,766,0,0.000502053,0.000912323,0.000516243,0.0167007,0.00606045,0.00117317,0.00060646,0.000684776,-0.0168359,0.000182953,0.00046814,0.0122302,-0.0202444,0.000295677,0.00203136,-0.00836853
1,4,0,0,0,0,0,0,231.8,254,0,0,0,0,0,0,0,231.8,766,0,8.2436e-05,0.000301971,0.000134773,0.0163192,0.00747189,0.000486526,0.000453873,-0.000688515,-0.0262582,-0.000351105,0.000658874,0.011391,-0.02116,0.000639,0.000314751,-0.00897888
1,5,0,0,0,0,0,0,231.8,254,0,0,0,0,0,0,0,231.8,766,0,0.000845375,0.000454559,-0.00020855,0.01445,0.00541195,0.000639114,-0.000156479,0.000417748,0.0976814,0.000144806,-0.000599976,0.00910213,-0.0217322,-0.000276527,0.000925102,-0.0093222
1,6,0,0,0,0,0,0,231.8,254,0,0,0,0,0,0,0,231.8,766,0,0.000502053,-0.00103317,0.000668831,0.0166244,0.00445827,0.000867996,0.000835342,-0.00011631,-0.0133645,0.000640716,0.000735168,0.0112002,-0.0205878,0.000639,0.000734367,-0.00848297
1,7,0,0,0,0,0,0,231.8,254,0,0,0,0,0,0,0,231.8,766,0,0.000502053,-0.000155793,0.000630684,0.0161666,0.00552639,0.000105057,0.000873489,0.000417748,-0.060743,6.85118e-05,0.000277405,0.0142901,-0.0210455,0.000181236,0.000391045,-0.00855927
1,8,0,0,0,0,0,0,231.8,254,0,0,0,0,0,0,0,231.8,766,0,-0.00022274,0.000874176,0.000516243,0.0160141,0.00533566,0.000639114,0.00060646,0.000303307,-0.0134789,0.000869598,8.66698e-05,0.0153201,-0.0211981,0.0012112,0.00145916,-0.00905518
1,9,0,0,0,0,0,0,231.8,254,0,0,0,0,0,0,0,231.8,766,0,0.000616494,-7.94986e-05,0.000401802,0.0152511,0.00640377,0.000867996,0.000377579,-0.000612221,0.0276435,0.000564422,0.000277405,0.0122683,-0.0206259,0.0012112,0.00123028,-0.00772003
2,0,0,0,0,0,0,0,231.8,254,0,0,0,0,0,0,0,231.8,766,0,0.000807228,-7.94986e-05,0.000134773,0.0163955,0.00556454,0.000829849,0.000759048,0.00106625,0.0528968,-0.000847016,0.000124817,0.0158541,-0.0209692,-9.49856e-06,0.00187878,-0.0081778
2,1,0,0,0,0,0,0,231.8,254,0,0,0,0,0,0,0,231.8,766,0,0.000463906,-0.000537262,0.000287361,0.0154037,0.00567898,0.000715408,7.24029e-05,-0.000154457,-0.0605523,0.000373688,0.000277405,0.0142138,-0.0198248,0.000906029,0.00134472,-0.00958923
2,2,0,0,0,0,0,0,231.8,254,0,0,0,0,0,0,0,231.8,766,0,0.000769082,0.00095047,0.00116474,0.0160904,0.00506863,0.00109688,0.00114052,0.00110439,0.0414146,0.000182953,0.00107849,0.00807217,-0.0204352,0.0012875,0.000124016,-0.00901703
2,3,0,0,0,0,0,0,231.8,254,0,0,0,0,0,0,0,231.8,766,0,0.000387612,0.000721588,9.66262e-05,0.0162048,0.00522121,0.000639114,0.000148697,0.000684776,0.0486243,-0.000236664,0.000315552,0.0137942,-0.0207785,0.00159267,0.00161175,-0.00695709
2,4,0,0,0,0,0,0,231.8,254,0,0,0,0,0,0,0,231.8,766,0,0.000387612,-0.000232087,0.000745125,0.0168914,0.00598415,0.00094429,0.00129311,0.000188866,-0.0579202,0.00132736,0.00191772,0.0111239,-0.0207785,0.000791588,0.00115398,-0.00875
2,5,0,0,0,0,0,0,231.8,254,0,0,0,0,0,0,0,231.8,766,0,-0.000184593,0.00095047,0.00101215,0.0162429,0.00541195,0.000295792,0.000759048,0.000570335,0.0487006,0.00113663,8.66698e-05,0.00902584,-0.0215796,0.000906029,0.0010014,-0.00783447
2,6,0,0,0,0,0,0,231.8,254,0,0,0,0,0,0,0,231.8,766,0,0.000883522,0.000721588,0.000363655,0.0158996,0.00670895,0.00105873,0.000263138,0.000722923,0.0621665,0.000869598,0.00096405,0.0126117,-0.0196722,0.00159267,0.00214581,-0.00943665
2,7,0,0,0,0,0,0,231.8,254,0,0,0,0,0,0,0,231.8,766,0,0.000654641,0.00095047,0.000859566,0.0162811,0.00758633,0.000867996,0.000873489,-7.81631e-05,-0.0605523,-0.000198517,0.00107849,0.0161593,-0.0206641,0.000677147,0.00069622,-0.00875
2,8,0,0,0,0,0,0,231.8,254,0,0,0,0,0,0,0,231.8,766,0,-0.00022274,0.000530853,0.000592537,0.0162048,0.00697597,0.000143204,-0.000194626,0.000341454,0.0491203,0.000259247,0.000544433,0.0173037,-0.0207404,0.00105862,0.000963249,-0.00878815
2,9,0,0,0,0,0,0,231.8,254,0,0,0,0,0,0,0,231.8,766,0,0.000387612,0.00018753,0.00116474,0.0155944,0.00525936,0.00117317,0.000530167,-0.000535927,0.0694526,0.00106033,0.00126923,0.0185244,-0.0205115,0.00124935,0.000162163,-0.00863556
3,0,0,0,0,0,0,0,231.8,254,0,0,0,0,0,0,0,231.8,766,0,0.000120583,-4.13517e-05,0.000821419,0.0163955,0.00712856,0.000333939,0.000682754,0.000112572,-0.0719582,0.000259247,-0.0002948,0.0221865,-0.0200537,0.000104942,0.000734367,-0.00859741
3,1,0,0,0,0,0,0,231.8,254,0,0,0,0,0,0,0,231.8,766,0,0.00137943,-0.00030838,0.00017292,0.0157852,0.00720486,0.000181351,0.000301285,-0.00099369,-0.0264489,-0.000312958,0.000506287,0.0179522,-0.0205878,0.000867882,-0.000143013,-0.00928406
3,2,0,0,0,0,0,0,231.8,254,0,0,0,0,0,0,0,231.8,766,0,0.000845375,0.000683441,0.000859566,0.0163955,0.00632748,0.00094429,0.000568314,-0.000535927,-0.00562065,3.03648e-05,-0.000104065,0.0172274,-0.0204352,0.000410118,0.0010014,-0.00794891
3,3,0,0,0,0,0,0,231.8,254,0,0,0,0,0,0,0,231.8,766,0,0.000311318,0.000378265,0.000211067,0.0166244,0.00495419,0.000753555,0.00060646,0.000989952,0.0712455,0.000411835,0.00111664,0.0143283,-0.0216559,0.00216488,0.000848808,-0.0075293
3,4,0,0,0,0,0,0,231.8,254,0,0,0,0,0,0,0,231.8,766,0,0.000692788,0.00110306,0.000859566,0.0163192,0.0053738,0.00136391,0.00140755,-0.000307045,-0.0202691,0.00117477,0.00104034,0.0132983,-0.0206259,0.00140194,0.00115398,-0.00909332
3,5,0,0,0,0,0,0,231.8,254,0,0,0,0,0,0,0,231.8,766,0,0.00126499,0.00125565,0.000859566,0.01651,0.00632748,0.00124947,0.000835342,0.00110439,-0.0254952,0.000640716,-0.000561829,0.0158541,-0.0203589,0.000867882,0.00195507,-0.00813965
3,6,0,0,0,0,0,0,231.8,254,0,0,0,0,0,0,0,231.8,766,0,0.000845375,0.000721588,0.000630684,0.0164337,0.00777706,-0.000276413,0.000797195,0.000532188,0.0777686,0.000259247,0.000124817,0.0139849,-0.0200537,-4.76455e-05,0.000848808,-0.0068045
3,7,0,0,0,0,0,0,231.8,254,0,0,0,0,0,0,0,231.8,766,0,-0.000299034,0.00144638,0.000630684,0.0157852,0.0091885,0.00102058,0.000949783,0.000379601,-0.0207269,0.000373688,0.000429993,0.0136798,-0.02013,0.00113491,0.00126843,-0.00859741
3,8,0,0,0,0,0,0,231.8,254,0,0,0,0,0,0,0,231.8,766,0,-3.20049e-05,0.000645294,-0.000246697,0.0146408,0.0102948,0.000105057,-0.000690537,-0.000345192,-0.0235879,-0.000847016,0.000506287,0.0102465,-0.0207785,0.00025753,0.000238457,-0.00901703
3,9,0,0,0,0,0,0,231.8,254,0,0,0,0,0,0,0,231.8,766,0,0.000769082,-0.000346527,-0.000551872,0.0162429,0.00827297,0.000333939,0.00129311,0.000112572,0.09215,-4.59291e-05,-0.0002948,0.00933102,-0.0213126,2.86484e-05,8.58689e-05,-0.00829224
4,0,0,0,0,0,0,0,231.8,254,0,0,0,0,0,0,0,231.8,766,0,-3.20049e-05,0.000492706,0.000401802,0.0162048,0.00865444,0.00102058,0.00121681,0.000837364,-0.0167596,0.000526275,0.000658874,0.0126498,-0.0194434,0.000371971,0.00184063,-0.00760559
4,1,0,0,0,0,0,0,231.8,254,0,0,0,0,0,0,0,231.8,766,0,-0.000680503,-0.000460968,-1.78147e-05,0.0154419,0.00575527,0.000486526,0.000301285,-0.000612221,-0.0271355,0.000297394,-0.000828858,0.0115817,-0.0213126,0.000371971,0.0010014,-0.00840668
4,2,0,0,0,0,0,0,231.8,254,0,0,0,0,0,0,0,231.8,766,0,-0.000413475,0.000683441,-1.78147e-05,0.0151748,0.00564083,0.000715408,0.000720901,0.000341454,0.098101,-0.00103775,0.000239258,0.0128787,-0.0208548,0.000639,0.00058178,-0.00936035
4,3,0,0,0,0,0,0,231.8,254,0,0,0,0,0,0,0,231.8,766,0,0.0005402,-0.000270233,0.000134773,0.0156326,0.00354275,0.000219498,-0.000347214,0.000951805,-0.0143563,-0.000274811,0.000124817,0.0129931,-0.0219611,0.000600853,0.00130657,-0.00913147
4,4,0,0,0,0,0,0,231.8,254,0,0,0,0,0,0,0,231.8,766,0,0.00122685,0.000530853,5.84793e-05,0.0160141,-0.000348244,0.000867996,0.00060646,-0.00049778,-0.0619256,0.000907745,0.000429993,0.0141757,-0.0203589,0.000448265,-0.000791511,-0.00829224
4,5,0,0,0,0,0,0,231.8,254,0,0,0,0,0,0,0,231.8,766,0,0.000654641,0.000912323,0.000783272,0.0151367,-0.00076786,0.00056282,0.000453873,-1.86916e-06,-0.0135934,0.000640716,-0.0002948,0.0109713,-0.0202826,0.000600853,0.00069622,-0.00855927
4,6,0,0,0,0,0,0,231.8,254,0,0,0,0,0,0,0,231.8,766,0,0.000578347,0.000759735,-1.78147e-05,0.0152893,-0.00134006,0.000524673,-0.000118332,0.00118069,0.0318397,0.000449982,0.0010022,0.011658,-0.0211218,0.00025753,0.00161175,-0.00859741
4,7,0,0,0,0,0,0,231.8,254,0,0,0,0,0,0,0,231.8,766,0,0.000425759,-0.00118576,0.000401802,0.015213,-0.00164524,0.000639114,-0.000156479,-0.00049778,0.0534309,0.000182953,-0.000599976,0.00997951,-0.02013,-9.49856e-06,-0.00174519,-0.00833038
4,8,0,0,0,0,0,0,231.8,254,0,0,0,0,0,0,0,231.8,766,0,-3.20049e-05,-0.000232087,0.00017292,0.0153656,-0.00313297,0.000372085,-4.2038e-05,-0.00049778,-0.0620782,0.000678863,0.000697021,0.00994137,-0.0203589,0.00159267,0.00123028,-0.00924591
4,9,0,0,0,0,0,0,231.8,254,0,0,0,0,0,0,0,231.8,766,0,-0.00022274,0.000569,0.000249214,0.0155182,-0.0034763,0.000639114,0.000263138,-0.000154457,0.0408424,6.85118e-05,0.000391846,0.0128405,-0.0205115,0.000944176,-0.000753365,-0.00821594
5,0,0,0,0,0,0,0,231.8,254,0,0,0,0,0,0,0,231.8,766,0,6.14207e-06,-0.000460968,0.000401802,0.0153274,-0.00225559,-9.38424e-06,-0.000461655,7.44248e-05,0.0481284,-8.40761e-05,0.000124817,0.0158923,-0.021427,0.000867882,0.000772514,-0.00840668
5,1,0,0,0,0,0,0,231.8,254,0,0,0,0,0,0,0,231.8,766,0,-0.000108299,3.49423e-05,-0.000818901,0.0153274,-0.00332371,0.000295792,0.000263138,-0.000268898,-0.0582253,-0.000122223,0.000353699,0.0131839,-0.0202063,0.000906029,0.000238457,-0.00798706
5,2,0,0,0,0,0,0,231.8,254,0,0,0,0,0,0,0,231.8,766,0,0.000349465,0.000454559,0.000668831,0.0144882,-0.00622288,0.000257645,0.000568314,-0.000230751,0.0481284,-0.000274811,-0.00128662,0.00944546,-0.0213889,0.000295677,0.000124016,-0.00829224
5,3,0,0,0,0,0,0,231.8,254,0,0,0,0,0,0,0,231.8,766,0,0.000654641,-7.94986e-05,0.000439949,0.0149459,-0.00507847,0.000639114,0.000377579,0.000303307,0.0627006,0.00109848,-0.000638123,0.0101321,-0.0224951,0.000600853,0.00130657,-0.00798706
5,4,0,0,0,0,0,0,231.8,254,0,0,0,0,0,0,0,231.8,766,0,0.00153202,0.0012175,0.00127918,0.0162811,0.000452843,0.00132576,0.00102608,0.000188866,-0.0615441,0.000869598,0.000315552,0.0108187,-0.0206641,0.0012875,0.00180248,-0.0075293
5,5,0,0,0,0,0,0,231.8,254,0,0,0,0,0,0,0,231.8,766,0,0.00107426,-0.000842438,0.000706978,0.0161666,-0.000500832,0.00121132,0.000759048,0.000837364,0.0496543,0.000564422,0.000773315,0.0142901,-0.0202444,0.000562706,0.00206951,-0.00775818
5,6,0,0,0,0,0,0,231.8,254,0,0,0,0,0,0,0,231.8,766,0,0.000807228,0.000607147,0.000745125,0.0169296,-0.00202671,0.000906143,0.00163643,0.000341454,0.0697196,0.00121292,0.00119293,0.0162738,-0.0197485,0.00239376,0.00123028,-0.00802521
5,7,0,0,0,0,0,0,231.8,254,0,0,0,0,0,0,0,231.8,766,0,-0.000489769,0.00110306,0.00154621,0.0165863,-0.00130192,0.000715408,0.000186844,0.000455895,-0.0730645,0.000526275,4.85228e-05,0.01944,-0.0208167,0.000448265,0.0015736,-0.00783447
5,8,0,0,0,0,0,0,231.8,254,0,0,0,0,0,0,0,231.8,766,0,0.0005402,0.000607147,0.000745125,0.0165481,-0.00248447,0.000791702,0.000568314,-0.000307045,-0.0279748,0.000526275,0.0010022,0.0210803,-0.0204352,0.00109676,0.00107769,-0.00848297
5,9,0,0,0,0,0,0,231.8,254,0,0,0,0,0,0,0,231.8,766,0,0.000921669,0.000492706,0.000287361,0.0165481,-0.00252262,0.00094429,0.00102608,0.000188866,-0.00592583,0.00132736,-0.000561829,0.0227969,-0.02013,0.00136379,0.000429192,-0.00756744
6,0,0,0,0,0,0,0,231.8,254,0,0,0,0,0,0,0,231.8,766,0,0.000425759,0.000874176,0.000859566,0.0161666,0.00102505,0.000295792,0.00125496,0.000913658,0.0747932,0.000297394,0.000201111,0.019974,-0.0207022,0.000906029,0.0015736,-0.00798706
6,1,0,0,0,0,0,0,231.8,254,0,0,0,0,0,0,0,231.8,766,0,8.2436e-05,0.00110306,0.000859566,0.0156326,0.00155911,0.00132576,0.00098793,0.00076107,-0.0209176,0.00117477,-0.000180359,0.0218432,-0.0194434,0.00205044,0.00164989,-0.00802521
6,2,0,0,0,0,0,0,231.8,254,0,0,0,0,0,0,0,231.8,766,0,0.000883522,0.00137009,0.000974007,0.0157089,0.00155911,0.00132576,0.00121681,0.000417748,-0.0245415,0.000907745,0.000658874,0.0206225,-0.020397,0.0012875,0.00168804,-0.00768188
6,3,0,0,0,0,0,0,231.8,254,0,0,0,0,0,0,0,231.8,766,0,0.00141758,0.000454559,5.84793e-05,0.0163574,0.00377163,-4.75312e-05,0.000682754,0.00118069,0.0805915,0.000182953,0.000849609,0.0195544,-0.0217703,0.00170712,0.00130657,-0.00798706
6,4,0,0,0,0,0,0,231.8,254,0,0,0,0,0,0,0,231.8,766,0,0.000235024,0.000645294,0.00055439,0.0162048,0.00262722,0.00105873,0.000568314,0.000455895,-0.0241219,0.000640716,0.000849609,0.0137179,-0.0202063,0.00113491,0.000848808,-0.00726227
6,5,0,0,0,0,0,0,231.8,254,0,0,0,0,0,0,0,231.8,766,0,0.000387612,0.00152267,0.000325508,0.015747,0.00323757,0.000829849,0.000377579,0.000112572,-0.0231301,0.000564422,-0.000790711,0.013489,-0.0219611,0.000867882,0.00149731,-0.00741486
6,6,0,0,0,0,0,0,231.8,254,0,0,0,0,0,0,0,231.8,766,0,0.0005402,0.000530853,2.03323e-05,0.0163192,0.00621304,0.000829849,0.000720901,0.000455895,0.093447,0.00140366,0.000849609,0.013489,-0.0194434,0.00117306,0.000505486,-0.00836853
6,7,0,0,0,0,0,0,231.8,254,0,0,0,0,0,0,0,231.8,766,0,-0.000108299,0.000454559,0.00055439,0.0151367,0.00636562,0.000410232,0.000301285,0.000188866,-0.0173699,0.00113663,-0.00166809,0.0121539,-0.0204352,0.000524559,0.000276604,-0.00768188
6,8,0,0,0,0,0,0,231.8,254,0,0,0,0,0,0,0,231.8,766,0,-0.000451622,3.49423e-05,0.00055439,0.0156326,0.00716671,0.000486526,-4.2038e-05,0.000227013,-0.0287377,0.000678863,0.000315552,0.00963619,-0.0208548,0.00155453,0.000886955,-0.00813965
6,9,0,0,0,0,0,0,231.8,254,0,0,0,0,0,0,0,231.8,766,0,0.000502053,0.000263824,5.84793e-05,0.0154037,0.00930294,0.00140205,0.00167458,0.000188866,0.0989402,0.00071701,0.000773315,0.00822475,-0.0210074,0.00147823,0.000276604,-0.00905518
7,0,0,0,0,0,0,0,231.8,254,0,0,0,0,0,0,0,231.8,766,0,0.000311318,0.000607147,0.00101215,0.0164718,0.0111721,0.000257645,0.000453873,0.00121883,-0.0141656,0.000984039,-0.000790711,0.00582149,-0.0204352,0.00124935,0.000658073,-0.00871185
7,1,0,0,0,0,0,0,231.8,254,0,0,0,0,0,0,0,231.8,766,0,0.000807228,0.00129379,0.000249214,0.0161285,0.0104473,0.000333939,-0.000194626,0.000379601,-0.0632607,0.00121292,0.00142181,0.00605038,-0.02116,2.86484e-05,0.00164989,-0.00859741
7,2,0,0,0,0,0,0,231.8,254,0,0,0,0,0,0,0,231.8,766,0,0.000311318,0.0011412,0.000783272,0.0163192,0.0123928,0.000372085,0.00133125,0.000684776,-0.014013,0.000831451,0.000773315,0.0105899,-0.0216177,0.00124935,0.000772514,-0.00783447
7,3,0,0,0,0,0,0,231.8,254,0,0,0,0,0,0,0,231.8,766,0,0.000425759,0.000721588,0.000363655,0.0163192,0.0109433,0.000715408,0.000568314,0.000799217,0.0313438,0.00113663,-0.000371094,0.010628,-0.02116,0.00105862,0.00218395,-0.00821594
7,4,0,0,0,0,0,0,231.8,254,0,0,0,0,0,0,0,231.8,766,0,0.0017609,0.000797882,0.00143177,0.0167007,0.0104855,0.00117317,0.00133125,0.000227013,0.0559486,0.00186142,0.000773315,0.0139849,-0.0200537,0.00144009,-6.6719e-05,-0.00691895
7,5,0,0,0,0,0,0,231.8,254,0,0,0,0,0,0,0,231.8,766,0,0.00126499,0.00095047,0.00112659,0.0168151,0.00781521,0.000486526,0.000453873,0.00114254,-0.06204,0.00170883,0.000353699,0.0203555,-0.0191382,0.00166897,0.00180248,-0.00825409
7,6,0,0,0,0,0,0,231.8,254,0,0,0,0,0,0,0,231.8,766,0,0.000883522,0.00167526,0.000974007,0.0168151,0.0107525,0.00147835,0.00186531,0.00125698,0.0421394,0.00121292,0.000849609,0.0168078,-0.0210455,0.0018597,0.00103954,-0.00802521
7,7,0,0,0,0,0,0,231.8,254,0,0,0,0,0,0,0,231.8,766,0,0.000997963,0.000912323,5.84793e-05,0.016777,0.0107525,0.00121132,0.000797195,0.00076107,0.0488532,0.000869598,1.03759e-05,0.0177996,-0.0197104,0.00132565,-0.00018116,-0.00924591
7,8,0,0,0,0,0,0,231.8,254,0,0,0,0,0,0,0,231.8,766,0,0.000425759,0.000759735,0.00158436,0.016777,0.0110196,0.00105873,0.00140755,0.000570335,-0.0585305,0.00128921,0.00123108,0.0177615,-0.0212744,0.00140194,0.00115398,-0.00924591
7,9,0,0,0,0,0,0,231.8,254,0,0,0,0,0,0,0,231.8,766,0,6.14207e-06,0.000378265,0.000745125,0.0157089,0.0118588,0.000486526,0.000644607,-0.00118443,0.0476325,0.000755157,0.00046814,0.0146334,-0.0221899,0.000524559,8.58689e-05,-0.00798706
8,0,0,0,0,0,0,0,231.8,254,0,0,0,0,0,0,0,231.8,766,0,0.000235024,0.000759735,0.000363655,0.0149841,0.0104855,0.000639114,-0.000194626,0.000570335,0.0633872,0.000259247,-0.000218506,0.0131839,-0.019863,0.0012875,0.000238457,-0.00882629
8,1,0,0,0,0,0,0,231.8,254,0,0,0,0,0,0,0,231.8,766,0,0.000692788,-0.00019394,0.00112659,0.0167007,0.00819668,0.000867996,0.00121681,0.000532188,-0.0632226,0.000984039,0.00111664,0.00898769,-0.0210455,0.001936,0.000848808,-0.00905518
8,2,0,0,0,0,0,0,231.8,254,0,0,0,0,0,0,0,231.8,766,0,-0.000146446,-0.000270233,-0.000246697,0.0151748,0.00270351,-8.56782e-05,0.000263138,-0.000764809,0.0498069,-0.000236664,-0.000752564,0.010895,-0.0201682,0.000562706,0.00058178,-0.00924591
8,3,0,0,0,0,0,0,231.8,254,0,0,0,0,0,0,0,231.8,766,0,0.000654641,0.000225677,0.000249214,0.0161285,0.00380978,-0.000161972,0.000568314,0.000112572,0.0712074,0.000335541,-0.000104065,0.0127261,-0.0223425,0.000791588,0.000658073,-0.00890259
8,4,0,0,0,0,0,0,231.8,254,0,0,0,0,0,0,0,231.8,766,0,0.000883522,0.000836029,0.000821419,0.0163574,0.0053738,0.00113502,0.00106422,0.000227013,-0.0740945,0.000831451,0.000697021,0.0138324,-0.0202444,0.00151638,0.00172619,-0.00825409
8,5,0,0,0,0,0,0,231.8,254,0,0,0,0,0,0,0,231.8,766,0,0.000425759,0.000492706,-0.00032299,0.0160141,0.00689968,0.000791702,0.000949783,0.000303307,-0.0279366,0.000526275,-0.000523682,0.0139468,-0.0215033,0.000791588,0.000162163,-0.00924591
8,6,0,0,0,0,0,0,231.8,254,0,0,0,0,0,0,0,231.8,766,0,0.0005402,0.000378265,0.000592537,0.0159378,0.00712856,0.000486526,0.00011055,-0.000154457,-0.00760429,0.00170883,0.000849609,0.0151294,-0.0214651,0.00102047,9.57493e-06,-0.00920776
8,7,0,0,0,0,0,0,231.8,254,0,0,0,0,0,0,0,231.8,766,0,-0.00022274,0.00106491,0.0016988,0.0164718,0.00773891,0.00163094,0.00159828,7.44248e-05,0.0732673,0.00125107,0.000811462,0.0165026,-0.0197485,0.00144009,0.00107769,-0.00951294
8,8,0,0,0,0,0,0,231.8,254,0,0,0,0,0,0,0,231.8,766,0,0.000349465,0.000225677,0.000211067,0.0162048,0.00808224,0.00132576,0.000453873,0.000989952,-0.0196206,0.00113663,0.000544433,0.0190585,-0.0200919,0.00212673,0.00130657,-0.00821594
8,9,0,0,0,0,0,0,231.8,254,0,0,0,0,0,0,0,231.8,766,0,0.000883522,-0.000155793,0.000249214,0.0176925,0.00674709,0.000982437,0.00129311,0.00137142,-0.0287759,3.03648e-05,0.00046814,0.019974,-0.0197867,0.000219383,0.000963249,-0.00863556
9,0,0,0,0,0,0,0,231.8,254,0,0,0,0,0,0,0,231.8,766,0,-0.000642356,0.00171341,0.00146992,0.0163955,0.00583157,0.000906143,0.00117867,0.000913658,0.0791038,0.000869598,-0.000371094,0.019974,-0.0204733,0.0012112,0.000543633,-0.00871185
9,1,0,0,0,0,0,0,231.8,254,0,0,0,0,0,0,0,231.8,766,0,0.000692788,0.000454559,0.000401802,0.0166244,0.007243,0.00147835,0.000911636,0.000379601,-0.0216424,0.00182327,0.000925903,0.0213855,-0.0194815,0.00170712,0.00168804,-0.00794891
9,2,0,0,0,0,0,0,231.8,254,0,0,0,0,0,0,0,231.8,766,0,0.000235024,0.000874176,0.000630684,0.0158996,0.00651821,0.000524673,0.000530167,0.0016003,-0.0246178,-0.000312958,0.000429993,0.0196688,-0.0202063,0.00109676,0.000925102,-0.00924591
9,3,0,0,0,0,0,0,231.8,254,0,0,0,0,0,0,0,231.8,766,0,0.000845375,0.000607147,0.000325508,0.0162048,0.0041531,0.000677261,0.000568314,0.000379601,0.0948585,0.000945892,0.000506287,0.0170749,-0.0204733,0.000906029,0.000734367,-0.00836853
9,4,0,0,0,0,0,0,231.8,254,0,0,0,0,0,0,0,231.8,766,0,0.000196877,0.000683441,0.00108845,0.0159759,0.00113949,0.000295792,0.00098793,0.000951805,-0.0183999,0.00167068,0.00107849,0.0185626,-0.0207404,0.00166897,0.00134472,-0.00848297
9,5,0,0,0,0,0,0,231.8,254,0,0,0,0,0,0,0,231.8,766,0,0.000654641,0.000301971,-0.000399284,0.0160904,0.00155911,0.000257645,0.000339432,0.000913658,-0.0274407,0.000526275,0.000773315,0.01841,-0.0207404,0.000600853,0.0015736,-0.00928406
9,6,0,0,0,0,0,0,231.8,254,0,0,0,0,0,0,0,231.8,766,0,0.000196877,-0.000155793,-0.00020855,0.0167007,0.00106319,0.000524673,0.000224991,-0.000307045,0.0992835,0.000373688,0.00184143,0.0140994,-0.0207785,0.0012112,0.000734367,-0.00920776
9,7,0,0,0,0,0,0,231.8,254,0,0,0,0,0,0,0,231.8,766,0,0.000425759,-0.000422821,-5.59617e-05,0.0160522,-0.00160709,0.000295792,0.000339432,0.000112572,-0.0152337,0.000335541,-0.000599976,0.0127261,-0.0205115,0.000295677,0.000314751,-0.0106573
9,8,0,0,0,0,0,0,231.8,254,0,0,0,0,0,0,0,231.8,766,0,4.4289e-05,0.000569,2.03323e-05,0.0158615,0.000529137,0.000181351,0.000568314,0.00137142,-0.0636803,0.000106659,0.000887756,0.0133746,-0.0220374,0.00109676,0.00210766,-0.00863556
9,9,0,0,0,0,0,0,231.8,254,0,0,0,0,0,0,0,231.8,766,0,0.000959816,-0.000232087,0.000516243,0.0165481,0.00140652,0.00056282,0.000263138,0.000227013,-0.0150811,0.000297394,0.000620727,0.0154727,-0.0202444,0.000639,-0.000333748,-0.0081778
10,0,0,0,0,0,0,0,231.8,254,0,0,0,0,0,0,0,231.8,766,0,0.000807228,0.00163712,0.000211067,0.0156707,-0.00164524,0.000677261,0.000377579,0.000112572,0.0356544,-0.000465546,0.000353699,0.0129931,-0.0206259,0.000524559,0.000848808,-0.00867371
10,1,0,0,0,0,0,0,231.8,254,0,0,0,0,0,0,0,231.8,766,0,0.000845375,-0.000270233,0.000325508,0.0155944,0.000948753,0.000448379,7.24029e-05,0.000494041,0.0579704,0.000373688,-0.000104065,0.013489,-0.0212363,0.00109676,-0.000219307,-0.00669006
10,2,0,0,0,0,0,0,231.8,254,0,0,0,0,0,0,0,231.8,766,0,0.000769082,0.000569,0.000668831,0.0166244,-0.00164524,0.00102058,0.000682754,7.44248e-05,-0.0642144,-0.000389252,0.00123108,0.0141375,-0.0209692,0.000982323,0.000810661,-0.00863556
10,3,0,0,0,0,0,0,231.8,254,0,0,0,0,0,0,0,231.8,766,0,0.000769082,0.000111236,0.000897713,0.0163955,-0.00446812,0.000257645,0.000453873,0.00125698,0.0414146,0.000984039,0.000544433,0.0126879,-0.0218848,0.00182156,0.00123028,-0.00859741
10,4,0,0,0,0,0,0,231.8,254,0,0,0,0,0,0,0,231.8,766,0,0.00145573,0.000569,0.000516243,0.0162811,-0.00431553,0.000295792,0.00011055,0.000227013,0.0491965,0.000411835,-6.59181e-05,0.00906399,-0.0210837,0.000219383,0.000314751,-0.00844482
10,5,0,0,0,0,0,0,231.8,254,0,0,0,0,0,0,0,231.8,766,0,8.2436e-05,0.000530853,0.000821419,0.0158996,-0.00298038,0.000219498,0.000301285,0.000608482,-0.0595605,0.00102219,4.85228e-05,0.0136798,-0.020397,0.000906029,0.000925102,-0.00825409
10,6,0,0,0,0,0,0,231.8,254,0,0,0,0,0,0,0,231.8,766,0,0.000387612,-0.00030838,5.84793e-05,0.0158615,0.000223961,-0.000276413,-0.000194626,0.000570335,0.0482047,6.85118e-05,0.000124817,0.0131076,-0.0221899,-0.000200233,0.00058178,-0.00894073
10,7,0,0,0,0,0,0,231.8,254,0,0,0,0,0,0,0,231.8,766,0,0.000463906,0.000340118,0.000974007,0.0162048,-0.00172153,0.00113502,0.000835342,-1.86916e-06,0.0639213,-0.000312958,0.00058258,0.0157397,-0.02116,0.000753441,0.000352898,-0.0100089
10,8,0,0,0,0,0,0,231.8,254,0,0,0,0,0,0,0,231.8,766,0,0.00107426,0.0011412,0.00093586,0.0165481,0.000185814,0.00159279,0.000568314,0.000570335,-0.0639092,0.000526275,0.00134552,0.0178378,-0.0204733,0.00147823,0.00184063,-0.00848297
10,9,0,0,0,0,0,0,231.8,254,0,0,0,0,0,0,0,231.8,766,0,0.00137943,0.000225677,0.000439949,0.0156326,-0.000958595,0.000486526,7.24029e-05,-0.00049778,0.0503028,-0.000236664,0.000658874,0.0136798,-0.0204352,0.00124935,-2.8572e-05,-0.00829224
11,0,0,0,0,0,0,0,231.8,254,0,0,0,0,0,0,0,231.8,766,0,0.000311318,0.00140823,0.00124104,0.0158996,-0.000424538,0.000982437,0.000873489,0.00026516,0.0719321,-0.000198517,0.00046814,0.0126498,-0.0203207,0.00124935,0.000810661,-0.00928406
11,1,0,0,0,0,0,0,231.8,254,0,0,0,0,0,0,0,231.8,766,0,0.000196877,0.000645294,0.000821419,0.0175399,-0.002103,-4.75312e-05,0.000835342,0.000837364,-0.0754678,0.000945892,0.00104034,0.0128405,-0.020397,0.000906029,0.00142101,-0.00737671
11,2,0,0,0,0,0,0,231.8,254,0,0,0,0,0,0,0,231.8,766,0,0.000997963,0.00110306,0.00112659,0.0159378,-0.00301853,0.00102058,0.00148384,0.00148586,-0.0281655,0.000678863,0.00153625,0.0153201,-0.02013,0.000715294,0.00069622,-0.00913147
11,3,0,0,0,0,0,0,231.8,254,0,0,0,0,0,0,0,231.8,766,0,0.000654641,0.000149383,0.000974007,0.0167007,-0.00130192,0.00121132,-8.0185e-05,0.000112572,-0.00134819,0.00071701,0.000620727,0.0161593,-0.0205496,0.000371971,0.000772514,-0.00878815
11,4,0,0,0,0,0,0,231.8,254,0,0,0,0,0,0,0,231.8,766,0,0.000730935,-0.00019394,-0.000361137,0.0162811,-0.00111118,-0.000657883,0.00049202,0.000150719,0.140253,-7.78213e-06,0.00126923,0.0158923,-0.0215796,0.000715294,-2.8572e-05,-0.00909332
11,5,0,0,0,0,0,0,231.8,254,0,0,0,0,0,0,0,231.8,766,0,0.0011124,0.00110306,0.00055439,0.0160522,-0.002103,-8.56782e-05,-0.000461655,0.000837364,0.202395,0.000526275,0.000353699,0.0154345,-0.02116,0.000944176,0.00138287,-0.00936035
11,6,0,0,0,0,0,0,231.8,254,0,0,0,0,0,0,0,231.8,766,0,0.000235024,0.000340118,0.000859566,0.0163955,-0.00134006,0.000524673,0.000873489,-0.000955543,0.156885,0.000106659,0.00107849,0.0117724,-0.0202444,0.000639,0.000963249,-0.0099707
11,7,0,0,0,0,0,0,231.8,254,0,0,0,0,0,0,0,231.8,766,0,0.000692788,0.000340118,-0.000132256,0.0157852,0.000452843,0.000486526,0.000720901,0.00076107,0.0867332,-0.000236664,-0.000218506,0.0149768,-0.0203589,0.000562706,0.00176434,-0.00916962
11,8,0,0,0,0,0,0,231.8,254,0,0,0,0,0,0,0,231.8,766,0,0.000959816,0.000492706,0.000363655,0.0168914,-0.000195656,-0.000657883,0.00049202,0.000570335,-0.107778,-0.000351105,0.000429993,0.0170749,-0.0204733,0.000371971,0.00195507,-0.0093222
11,9,0,0,0,0,0,0,231.8,254,0,0,0,0,0,0,0,231.8,766,0,-0.000337181,0.000378265,0.000668831,0.0157089,0.00461086,0.00121132,0.00117867,-1.86916e-06,-0.0831353,0.000373688,-0.0002948,0.0169986,-0.0207785,0.00025753,0.000848808,-0.00772003
12,0,0,0,0,0,0,0,231.8,254,0,0,0,0,0,0,0,231.8,766,0,0.000921669,0.00125565,0.00177509,0.01651,0.0060223,0.00140205,0.000530167,0.000646629,0.0487388,0.000411835,0.000811462,0.0187152,-0.0194052,0.00140194,0.00283245,-0.00882629
12,1,0,0,0,0,0,0,231.8,254,0,0,0,0,0,0,0,231.8,766,0,0.000845375,-7.94986e-05,-9.41086e-05,0.0162811,0.00529751,0.000677261,0.000835342,0.000150719,-0.0707757,0.000411835,1.03759e-05,0.0172656,-0.02116,0.000906029,0.00107769,-0.00852112
12,2,0,0,0,0,0,0,231.8,254,0,0,0,0,0,0,0,231.8,766,0,0.00145573,0.000988617,0.00101215,0.0163192,0.00773891,0.000639114,0.000453873,0.000532188,-0.0750863,0.000564422,-0.000714417,0.01841,-0.0209692,0.00117306,0.00153545,-0.00779633
12,3,0,0,0,0,0,0,231.8,254,0,0,0,0,0,0,0,231.8,766,0,0.000959816,0.0012175,0.000706978,0.0162811,0.00743374,0.000295792,-0.000461655,0.000188866,0.0628532,0.00106033,0.000239258,0.0118487,-0.021427,0.000486412,0.000352898,-0.00859741
12,4,0,0,0,0,0,0,231.8,254,0,0,0,0,0,0,0,231.8,766,0,0.000692788,-7.94986e-05,0.000897713,0.0165481,0.00823482,0.000372085,0.000377579,3.62778e-05,-0.0528085,0.000488129,0.000773315,0.00997951,-0.0207785,-0.000276527,0.00119213,-0.00920776
12,5,0,0,0,0,0,0,231.8,254,0,0,0,0,0,0,0,231.8,766,0,0.000502053,0.000721588,0.000821419,0.0158996,0.0109433,0.000410232,0.000186844,0.000532188,-0.0967538,-0.000618134,-0.000104065,0.0126879,-0.0203589,0.000867882,-0.00018116,-0.00905518
12,6,0,0,0,0,0,0,231.8,254,0,0,0,0,0,0,0,231.8,766,0,0.00107426,-4.13517e-05,0.000821419,0.0163192,0.0122784,0.00056282,0.00144569,0.0010281,-0.0418984,0.00071701,0.000544433,0.0132983,-0.0200537,0.000448265,0.00138287,-0.00905518
12,7,0,0,0,0,0,0,231.8,254,0,0,0,0,0,0,0,231.8,766,0,-0.000947532,0.000607147,0.000821419,0.0157089,0.00937923,0.000448379,0.000568314,-0.000612221,0.00769264,0.000373688,0.000315552,0.0129931,-0.0197104,0.000486412,0.00103954,-0.00890259
12,8,0,0,0,0,0,0,231.8,254,0,0,0,0,0,0,0,231.8,766,0,0.000692788,0.000721588,0.00116474,0.0161285,0.0105236,0.00121132,0.00133125,0.00137142,0.0326789,0.000373688,0.00145996,0.0147097,-0.0195578,0.00182156,0.00210766,-0.00794891
12,9,0,0,0,0,0,0,231.8,254,0,0,0,0,0,0,0,231.8,766,0,0.000235024,0.000988617,9.66262e-05,0.0160904,0.0121258,0.00132576,-0.000537949,0.000837364,-0.0785577,0.000488129,0.000544433,0.0135653,-0.0206641,0.00113491,-6.6719e-05,-0.00775818
13,0,0,0,0,0,0,0,231.8,254,0,0,0,0,0,0,0,231.8,766,0,8.2436e-05,0.0011412,0.00215656,0.0171585,0.0116681,0.00155464,0.000911636,0.000913658,0.0320686,0.000602569,-2.77711e-05,0.0138705,-0.0201682,0.00109676,0.000467339,-0.00894073
13,1,0,0,0,0,0,0,231.8,254,0,0,0,0,0,0,0,231.8,766,0,0.00157017,0.00106491,-5.59617e-05,0.0160522,0.011401,0.000906143,0.00133125,0.00110439,0.0359214,-0.000351105,0.000849609,0.0105517,-0.019863,0.0012112,0.00226025,-0.00791077
13,2,0,0,0,0,0,0,231.8,254,0,0,0,0,0,0,0,231.8,766,0,0.000769082,0.0011412,0.00093586,0.0160904,0.0117825,0.00140205,0.000377579,0.00110439,-0.0652444,0.000411835,-0.000599976,0.0142138,-0.0199774,0.00113491,0.00103954,-0.00844482
13,3,0,0,0,0,0,0,231.8,254,0,0,0,0,0,0,0,231.8,766,0,0.0005402,0.00110306,0.00127918,0.0172348,0.0102185,0.00170723,0.000644607,0.000684776,0.0440086,0.00113663,0.00107849,0.0130694,-0.0197485,0.0018597,0.00134472,-0.00886444
13,4,0,0,0,0,0,0,231.8,254,0,0,0,0,0,0,0,231.8,766,0,0.0011887,0.000149383,0.00135548,0.0162048,0.00903591,-0.000276413,0.00011055,-0.000230751,0.060221,0.00109848,0.0016507,0.0105517,-0.0200156,0.000867882,0.000391045,-0.00764374
13,5,0,0,0,0,0,0,231.8,254,0,0,0,0,0,0,0,231.8,766,0,0.000387612,0.00018753,0.000439949,0.0151367,0.00960812,0.00102058,-3.89107e-06,0.000532188,-0.0627267,0.000144806,8.66698e-05,0.00795772,-0.0207022,0.000143089,0.000543633,-0.00970367
13,6,0,0,0,0,0,0,231.8,254,0,0,0,0,0,0,0,231.8,766,0,0.000349465,0.000492706,0.00166065,0.0169296,0.00880703,0.00056282,-4.2038e-05,0.00118069,0.0507224,0.00136551,0.00134552,0.0150531,-0.0200156,0.000600853,0.00119213,-0.00703339
13,7,0,0,0,0,0,0,231.8,254,0,0,0,0,0,0,0,231.8,766,0,0.000921669,0.000988617,0.00127918,0.01651,0.00743374,0.000906143,0.00106422,0.000532188,0.0727714,0.000678863,0.000544433,0.0208133,-0.0202444,0.000829735,0.000848808,-0.00859741
13,8,0,0,0,0,0,0,231.8,254,0,0,0,0,0,0,0,231.8,766,0,0.000235024,0.00148453,0.000287361,0.0169296,0.00438198,0.000639114,-0.000766831,-0.000230751,-0.0690209,0.000335541,-6.59181e-05,0.0176471,-0.0206259,0.00144009,0.0010014,-0.00798706
13,9,0,0,0,0,0,0,231.8,254,0,0,0,0,0,0,0,231.8,766,0,0.000502053,7.30893e-05,5.84793e-05,0.0160141,-0.00187412,0.000333939,0.00060646,-0.000421486,-0.0237023,0.000449982,-0.000180359,0.0152056,-0.0209311,0.000295677,0.000238457,-0.00909332
14,0,0,0,0,0,0,0,231.8,254,0,0,0,0,0,0,0,231.8,766,0,0.000616494,0.00159897,0.000287361,0.0162048,-0.00259892,0.00094429,0.000186844,0.00026516,-0.00180595,6.85118e-05,-0.000104065,0.0126117,-0.0194052,0.000677147,0.00115398,-0.00730042
14,1,0,0,0,0,0,0,231.8,254,0,0,0,0,0,0,0,231.8,766,0,0.000883522,-4.13517e-05,9.66262e-05,0.0161666,-0.00198856,0.000410232,0.000759048,-1.86916e-06,0.0758994,0.00128921,0.000506287,0.0104373,-0.0217322,0.000333824,0.000810661,-0.00852112
14,2,0,0,0,0,0,0,231.8,254,0,0,0,0,0,0,0,231.8,766,0,-0.000337181,0.000759735,0.0010503,0.0157852,-0.0021793,0.000372085,3.42559e-05,0.000150719,-0.0158059,-0.000389252,0.000697021,0.0144046,-0.0206259,0.000448265,0.000314751,-0.00958923
14,3,0,0,0,0,0,0,231.8,254,0,0,0,0,0,0,0,231.8,766,0,0.000463906,-7.94986e-05,-0.000361137,0.0156326,-0.00107304,0.000105057,-8.0185e-05,0.000227013,-0.020498,0.000907745,-0.000752564,0.012955,-0.0217703,0.000753441,0.000352898,-0.00794891
14,4,0,0,0,0,0,0,231.8,254,0,0,0,0,0,0,0,231.8,766,0,0.000692788,0.000340118,-9.41086e-05,0.0155563,0.000338402,0.000181351,-0.000423508,7.44248e-05,0.0836814,-0.000389252,0.00046814,0.0123828,-0.0219611,-0.000505409,-0.000448189,-0.00699524
14,5,0,0,0,0,0,0,231.8,254,0,0,0,0,0,0,0,231.8,766,0,0.00015873,0.000492706,0.000287361,0.0148697,-0.00198856,2.87627e-05,-4.2038e-05,-0.00137516,-0.0137078,0.000373688,-0.000638123,0.0153201,-0.0210837,0.000295677,0.000162163,-0.00966553
14,6,0,0,0,0,0,0,231.8,254,0,0,0,0,0,0,0,231.8,766,0,0.000311318,-0.00030838,-0.000475578,0.0150985,-0.000844154,0.000219498,-0.000118332,-0.00049778,-0.0179803,0.000869598,-0.00117218,0.0140994,-0.0212363,-8.57925e-05,0.00149731,-0.00760559
14,7,0,0,0,0,0,0,231.8,254,0,0,0,0,0,0,0,231.8,766,0,-0.00022274,0.0011412,0.00055439,0.0157089,-0.000119362,0.00128761,0.00060646,0.000799217,0.0987113,-4.59291e-05,0.00046814,0.0156253,-0.0208929,0.000410118,0.000276604,-0.0093985
14,8,0,0,0,0,0,0,231.8,254,0,0,0,0,0,0,0,231.8,766,0,0.000196877,0.0011412,0.000821419,0.0155182,-0.000424538,0.000982437,0.00060646,0.000417748,-0.0110757,6.85118e-05,-0.000180359,0.0153964,-0.0200156,0.00132565,0.00115398,-0.00901703
14,9,0,0,0,0,0,0,231.8,254,0,0,0,0,0,0,0,231.8,766,0,0.000845375,0.000645294,0.000401802,0.0165481,-0.00271336,0.00105873,0.00117867,0.000379601,-0.0203072,0.000831451,0.000811462,0.0158923,-0.0198248,0.00159267,-2.8572e-05,-0.00813965
15,0,0,0,0,0,0,0,231.8,254,0,0,0,0,0,0,0,231.8,766,0,0.000997963,0.000607147,0.00158436,0.0163574,0.000338402,0.00105873,0.000797195,0.00129513,0.103632,0.00147995,0.000925903,0.0137561,-0.0201682,0.00189785,0.0010014,-0.00825409
15,1,0,0,0,0,0,0,231.8,254,0,0,0,0,0,0,0,231.8,766,0,0.000273171,0.0011412,0.000592537,0.0171966,0.00277981,0.00136391,0.00098793,-0.000345192,-0.00909203,0.000945892,8.66698e-05,0.0149768,-0.0205496,0.00132565,0.00134472,-0.00886444
15,2,0,0,0,0,0,0,231.8,254,0,0,0,0,0,0,0,231.8,766,0,-0.000566063,-0.000422821,0.000706978,0.0165481,0.00152096,0.00094429,0.000720901,0.000303307,-0.0571191,3.03648e-05,0.00104034,0.0183337,-0.0213507,0.000600853,0.000467339,-0.00772003
15,3,0,0,0,0,0,0,231.8,254,0,0,0,0,0,0,0,231.8,766,0,0.000235024,0.000836029,0.000668831,0.0164718,0.00449642,0.000372085,-0.000614243,0.00106625,-0.00836723,0.000831451,-0.000523682,0.018143,-0.0207785,-0.000963173,0.00119213,-0.00798706
15,4,0,0,0,0,0,0,231.8,254,0,0,0,0,0,0,0,231.8,766,0,4.4289e-05,0.000569,0.000859566,0.0170822,0.00995144,0.00170723,-3.89107e-06,0.000112572,0.0325263,0.00128921,0.00096405,0.0189441,-0.0194815,0.0012112,-6.6719e-05,-0.0081015
15,5,0,0,0,0,0,0,231.8,254,0,0,0,0,0,0,0,231.8,766,0,-0.000413475,0.0011412,0.000706978,0.0162048,0.0103711,0.00109688,0.00049202,0.0016766,0.0579704,0.00109848,0.000773315,0.0193637,-0.0205115,0.00178341,0.000925102,-0.00836853
15,6,0,0,0,0,0,0,231.8,254,0,0,0,0,0,0,0,231.8,766,0,0.000769082,0.000225677,0.00093586,0.0173874,0.0120114,0.000791702,0.00156013,-0.000154457,-0.0571191,0.00186142,0.00096405,0.0181811,-0.0202826,0.00170712,0.000619926,-0.00852112
15,7,0,0,0,0,0,0,231.8,254,0,0,0,0,0,0,0,231.8,766,0,0.000425759,0.000378265,0.00093586,0.0165863,0.0135754,0.00185982,0.00133125,0.000494041,0.0445426,0.00102219,0.000201111,0.0175708,-0.0186804,0.00197414,0.00187878,-0.00722412
15,8,0,0,0,0,0,0,231.8,254,0,0,0,0,0,0,0,231.8,766,0,0.00122685,0.0011412,0.00120289,0.0164718,0.00934109,0.000219498,0.000873489,0.0010281,0.0526679,-0.000198517,-0.000104065,0.0149386,-0.0203589,0.000410118,0.00142101,-0.00852112
15,9,0,0,0,0,0,0,231.8,254,0,0,0,0,0,0,0,231.8,766,0,-0.000680503,0.000263824,0.00093586,0.0159759,0.00899776,0.000600967,0.000301285,-0.000345192,-0.0551354,0.00128921,-0.000218506,0.0158541,-0.020397,0.00113491,0.000848808,-0.00798706
16,0,0,0,0,0,0,0,231.8,254,0,0,0,0,0,0,0,231.8,766,0,0.000311318,-4.13517e-05,0.000325508,0.0146789,0.00457272,-4.75312e-05,-0.000194626,-1.86916e-06,0.0512183,6.85118e-05,-0.00067627,0.012955,-0.0221136,0.000333824,0.000467339,-0.00833038
16,1,0,0,0,0,0,0,231.8,254,0,0,0,0,0,0,0,231.8,766,0,0.000273171,0.00117935,0.0010503,0.0160522,0.00720486,0.000524673,-0.000118332,0.000379601,0.0652183,0.00155624,0.000735168,0.0142138,-0.0210074,0.000639,-0.000143013,-0.00852112
16,2,0,0,0,0,0,0,231.8,254,0,0,0,0,0,0,0,231.8,766,0,6.14207e-06,0.00125565,0.00108845,0.0160522,0.00606045,0.000639114,0.00049202,0.000989952,-0.0594079,0.000373688,-0.0002948,0.0160067,-0.0204352,0.000333824,0.00176434,-0.00779633
16,3,0,0,0,0,0,0,231.8,254,0,0,0,0,0,0,0,231.8,766,0,0.000273171,0.0011412,0.00112659,0.0158996,0.00564083,0.000600967,0.000911636,0.0010281,0.0515617,0.000793304,0.000887756,0.0110476,-0.0208167,0.000562706,0.0015736,-0.00901703
16,4,0,0,0,0,0,0,231.8,254,0,0,0,0,0,0,0,231.8,766,0,0.000807228,0.000607147,0.00135548,0.0173874,0.0054501,0.00178352,0.00106422,-0.00011631,0.0720466,0.00186142,0.00134552,0.0128405,-0.0193671,0.00201229,0.00134472,-0.00863556
16,5,0,0,0,0,0,0,231.8,254,0,0,0,0,0,0,0,231.8,766,0,0.000807228,0.00110306,0.00185139,0.0162048,0.00461086,0.00140205,0.00011055,-0.00087925,-0.0700127,0.000335541,0.000773315,0.0124972,-0.020397,0.000791588,0.00134472,-0.0075293
16,6,0,0,0,0,0,0,231.8,254,0,0,0,0,0,0,0,231.8,766,0,4.4289e-05,0.000416412,0.000630684,0.0163192,0.00422939,0.000677261,0.00129311,0.000608482,-0.0260293,0.00071701,-6.59181e-05,0.0120013,-0.0203589,0.00189785,0.000391045,-0.00913147
16,7,0,0,0,0,0,0,231.8,254,0,0,0,0,0,0,0,231.8,766,0,0.000196877,0.000607147,2.03323e-05,0.0158996,0.00400051,0.000143204,0.00060646,-0.000383339,-0.00417107,0.000488129,0.00130737,0.00921657,-0.0207785,0.00025753,0.00126843,-0.00806335
16,8,0,0,0,0,0,0,231.8,254,0,0,0,0,0,0,0,231.8,766,0,0.000463906,0.000454559,0.00120289,0.0160904,0.00201687,0.00124947,0.00106422,0.00106625,0.0741065,0.000488129,0.000506287,0.00910213,-0.0205878,0.00105862,0.000886955,-0.00775818
16,9,0,0,0,0,0,0,231.8,254,0,0,0,0,0,0,0,231.8,766,0,0.0005402,0.000378265,0.00093586,0.0162048,-0.00076786,0.00117317,0.00102608,0.000417748,-0.019201,0.00140366,0.000887756,0.00666073,-0.0194052,0.00216488,0.00103954,-0.00905518
17,0,0,0,0,0,0,0,231.8,254,0,0,0,0,0,0,0,231.8,766,0,0.000883522,0.00117935,0.00116474,0.0158996,0.00167355,0.00128761,0.00011055,0.00125698,-0.0245415,0.000984039,0.000697021,0.00933102,-0.0197104,0.00166897,-6.6719e-05,-0.00768188
17,1,0,0,0,0,0,0,231.8,254,0,0,0,0,0,0,0,231.8,766,0,0.000959816,0.000340118,0.00135548,0.0178451,0.00392422,0.00124947,0.00178902,0.00114254,0.0791038,0.000526275,0.00046814,0.0102847,-0.0204352,0.00182156,0.0015736,-0.00802521
17,2,0,0,0,0,0,0,231.8,254,0,0,0,0,0,0,0,231.8,766,0,0.000311318,0.00125565,0.00139362,0.0157852,0.00152096,0.00140205,0.0013694,0.000455895,-0.0209176,0.00113663,0.000429993,0.0115817,-0.0199774,0.00197414,0.00145916,-0.00707153
17,3,0,0,0,0,0,0,231.8,254,0,0,0,0,0,0,0,231.8,766,0,0.00107426,0.000759735,0.00127918,0.0170059,0.000834313,0.00136391,0.00133125,0.000646629,-0.0220238,0.00071701,1.03759e-05,0.0128405,-0.0212744,6.67954e-05,0.000276604,-0.00905518
17,4,0,0,0,0,0,0,231.8,254,0,0,0,0,0,0,0,231.8,766,0,-0.000108299,0.00095047,0.00124104,0.0166244,0.00209316,0.00124947,0.00144569,7.44248e-05,0.0943244,0.00193771,0.00180328,0.0169223,-0.0191763,0.00140194,0.00119213,-0.00703339
17,5,0,0,0,0,0,0,231.8,254,0,0,0,0,0,0,0,231.8,766,0,0.000235024,0.000645294,0.000592537,0.0162811,0.00373348,0.000677261,0.00114052,0.000722923,-0.0190865,0.0002211,0.000544433,0.0142901,-0.0200537,0.00102047,0.00123028,-0.00871185
17,6,0,0,0,0,0,0,231.8,254,0,0,0,0,0,0,0,231.8,766,0,0.000921669,-0.000117646,-0.000246697,0.0169296,0.00457272,0.000219498,0.00125496,0.00076107,-0.0259148,-4.59291e-05,4.85228e-05,0.0134509,-0.0198248,0.00166897,0.00123028,-0.00878815
17,7,0,0,0,0,0,0,231.8,254,0,0,0,0,0,0,0,231.8,766,0,-0.000527916,0.0012175,0.000363655,0.0160904,0.00808224,0.00105873,0.000377579,0.000646629,0.0985587,-0.000618134,-0.000256653,0.0139087,-0.0195959,0.00105862,0.00145916,-0.0081015
17,8,0,0,0,0,0,0,231.8,254,0,0,0,0,0,0,0,231.8,766,0,0.000845375,0.000607147,0.000668831,0.015747,0.00876888,0.00109688,0.000949783,-0.000383339,-0.0142419,-7.78213e-06,0.000201111,0.0152056,-0.0202826,0.000791588,0.00107769,-0.00943665
17,9,0,0,0,0,0,0,231.8,254,0,0,0,0,0,0,0,231.8,766,0,-0.000413475,3.49423e-05,0.000439949,0.015213,0.00522121,0.000448379,0.00106422,-4.00161e-05,-0.063604,0.000564422,0.000162964,0.0165026,-0.0212744,0.000753441,0.000925102,-0.00783447
18,0,0,0,0,0,0,0,231.8,254,0,0,0,0,0,0,0,231.8,766,0,-0.000909385,0.0011412,0.00055439,0.0152511,0.00281796,0.000753555,0.000568314,0.000112572,-0.0143182,0.00071701,0.000773315,0.0138705,-0.0203589,0.000333824,0.00142101,-0.0093222
18,1,0,0,0,0,0,0,231.8,254,0,0,0,0,0,0,0,231.8,766,0,-0.000489769,0.00125565,5.84793e-05,0.0164718,0.00499233,0.000448379,0.000759048,0.000799217,0.0273765,0.000793304,0.000239258,0.0178759,-0.0213507,0.00159267,0.00103954,-0.00890259
18,2,0,0,0,0,0,0,231.8,254,0,0,0,0,0,0,0,231.8,766,0,0.000692788,-0.000270233,0.000630684,0.0155944,0.00129208,-0.00031456,0.000148697,0.000188866,0.0559104,0.000259247,-0.000332947,0.0208514,-0.0217322,-4.76455e-05,0.00115398,-0.00943665
18,3,0,0,0,0,0,0,231.8,254,0,0,0,0,0,0,0,231.8,766,0,-3.20049e-05,0.000492706,0.000592537,0.0159759,0.00102505,0.000219498,0.000301285,0.000188866,-0.06307,0.000755157,0.000811462,0.0203173,-0.0210074,0.00105862,0.00119213,-0.0099707
18,4,0,0,0,0,0,0,231.8,254,0,0,0,0,0,0,0,231.8,766,0,-0.000260887,-0.000346527,0.000706978,0.0155563,-0.000348244,0.000600967,0.00159828,0.000227013,0.0411094,0.00071701,-0.00067627,0.0175326,-0.0199774,0.000753441,0.00138287,-0.00863556
18,5,0,0,0,0,0,0,231.8,254,0,0,0,0,0,0,0,231.8,766,0,0.00115055,-4.13517e-05,-0.000361137,0.015747,0.00239834,-0.000238266,0.000797195,0.000341454,0.0486625,-0.000236664,0.000277405,0.0142901,-0.0209311,-4.76455e-05,0.000352898,-0.00848297
18,6,0,0,0,0,0,0,231.8,254,0,0,0,0,0,0,0,231.8,766,0,0.000463906,-3.20468e-06,0.000211067,0.0160904,0.00178799,0.000448379,0.000453873,-1.86916e-06,-0.0595605,0.000411835,-0.000447388,0.0123446,-0.0211981,0.000753441,-0.000371895,-0.0107336
18,7,0,0,0,0,0,0,231.8,254,0,0,0,0,0,0,0,231.8,766,0,-0.000337181,0.000149383,0.000821419,0.0144119,0.000529137,0.000486526,0.000224991,-0.000307045,0.049311,0.000907745,0.000239258,0.0106662,-0.0206641,0.00132565,0.000391045,-0.00791077
18,8,0,0,0,0,0,0,231.8,254,0,0,0,0,0,0,0,231.8,766,0,0.000235024,0.00095047,-0.00032299,0.0163192,0.00297054,0.000486526,0.000720901,7.44248e-05,0.0627387,-0.000465546,-0.000142212,0.00933102,-0.0208167,0.00170712,0.00191692,-0.00848297
18,9,0,0,0,0,0,0,231.8,254,0,0,0,0,0,0,0,231.8,766,0,0.000997963,-0.000155793,0.000478096,0.0162811,0.00606045,0.000829849,0.000911636,0.000570335,-0.06307,0.000678863,0.000811462,0.010361,-0.020397,0.000410118,0.00153545,-0.00791077
19,0,0,0,0,0,0,0,231.8,254,0,0,0,0,0,0,0,231.8,766,0,-0.000604209,0.000988617,0.000211067,0.0157852,0.00232204,0.000143204,0.000263138,-1.86916e-06,0.0499976,0.000488129,-0.000523682,0.0155108,-0.0215033,-8.57925e-05,-0.000104866,-0.00920776
19,1,0,0,0,0,0,0,231.8,254,0,0,0,0,0,0,0,231.8,766,0,0.000273171,-0.000384674,-0.000437431,0.0158996,0.00266537,-9.38424e-06,-0.000423508,-0.00103184,0.070597,3.03648e-05,-6.59181e-05,0.0180285,-0.0207404,0.00124935,0.000467339,-0.0102759
19,2,0,0,0,0,0,0,231.8,254,0,0,0,0,0,0,0,231.8,766,0,6.14207e-06,0.000797882,-0.000132256,0.0154037,0.00499233,0.000333939,0.000186844,0.00026516,-0.0740563,-0.000732575,-0.000142212,0.0178759,-0.0215796,0.0012112,0.000352898,-0.00863556
19,3,0,0,0,0,0,0,231.8,254,0,0,0,0,0,0,0,231.8,766,0,-0.000527916,-0.00019394,0.000783272,0.016777,0.00438198,0.000829849,0.00171272,0.000799217,-0.0280129,0.0002211,0.000697021,0.0199359,-0.0200919,0.00144009,0.00199322,-0.00875
19,4,0,0,0,0,0,0,231.8,254,0,0,0,0,0,0,0,231.8,766,0,0.00015873,0.000607147,0.00131733,0.0166244,0.0060223,0.00140205,0.000682754,0.000227013,-0.00653618,0.000488129,0.000239258,0.0172656,-0.0199774,0.00102047,0.00130657,-0.00737671
19,5,0,0,0,0,0,0,231.8,254,0,0,0,0,0,0,0,231.8,766,0,0.000807228,0.000607147,0.000706978,0.0163955,0.00403866,0.000524673,0.000568314,0.000875511,0.0737251,0.000411835,0.000773315,0.0151675,-0.0203589,0.000562706,0.00145916,-0.00840668
19,6,0,0,0,0,0,0,231.8,254,0,0,0,0,0,0,0,231.8,766,0,0.000196877,-0.000499115,-9.41086e-05,0.0153274,0.00289425,0.000333939,0.000415726,0.000417748,-0.0201546,-0.000847016,0.000773315,0.0134509,-0.0206259,0.000486412,0.000886955,-0.0093222
19,7,0,0,0,0,0,0,231.8,254,0,0,0,0,0,0,0,231.8,766,0,0.0005402,0.000111236,0.000668831,0.0156707,0.000872459,0.000143204,0.00098793,-4.00161e-05,-0.0260293,0.000602569,0.00058258,0.0111621,-0.0212363,0.000524559,0.00107769,-0.00695709
19,8,0,0,0,0,0,0,231.8,254,0,0,0,0,0,0,0,231.8,766,0,0.000235024,0.00018753,0.000897713,0.01651,0.00117764,0.000372085,0.000339432,0.000570335,0.0815833,0.000144806,0.000124817,0.0126117,-0.0205496,0.000219383,9.57493e-06,-0.00890259
19,9,0,0,0,0,0,0,231.8,254,0,0,0,0,0,0,0,231.8,766,0,-0.000260887,0.000569,2.03323e-05,0.0155182,0.00102505,0.000257645,0.000720901,7.44248e-05,-0.0244653,0.000640716,0.000697021,0.0148623,-0.0204352,0.000639,4.77219e-05,-0.00962738
20,0,0,0,0,0,0,0,231.8,254,0,0,0,0,0,0,0,231.8,766,0,4.4289e-05,-0.000422821,-5.59617e-05,0.0145263,-0.00175968,0.000639114,0.000453873,0.000570335,-0.0240456,-0.00111404,-0.000447388,0.0120395,-0.0213126,0.00025753,0.00058178,-0.00913147
20,1,0,0,0,0,0,0,231.8,254,0,0,0,0,0,0,0,231.8,766,0,0.000502053,-0.00126205,-0.00108593,0.0150604,-0.000844154,-0.000123825,-0.000728684,0.000303307,0.0950874,-0.000465546,-0.00117218,0.0151294,-0.0207404,0.000486412,0.00107769,-0.00825409
20,2,0,0,0,0,0,0,231.8,254,0,0,0,0,0,0,0,231.8,766,0,0.000807228,0.000492706,0.00124104,0.0155182,0.00190243,0.00102058,0.00117867,0.000875511,-0.0178658,0.000755157,0.000506287,0.017113,-0.0201682,0.00025753,0.00115398,-0.00802521
20,3,0,0,0,0,0,0,231.8,254,0,0,0,0,0,0,0,231.8,766,0,0.000349465,-3.20468e-06,-0.000132256,0.0158233,0.00251278,0.000410232,0.000301285,0.000455895,-0.0279366,-7.78213e-06,0.000544433,0.0136798,-0.0213889,0.000791588,0.000543633,-0.00981812
20,4,0,0,0,0,0,0,231.8,254,0,0,0,0,0,0,0,231.8,766,0,-0.00022274,-0.000842438,-0.000551872,0.0150222,0.00312313,0.000143204,0.000568314,-4.00161e-05,0.0982154,-0.000465546,0.000925903,0.010094,-0.0210837,0.0012112,0.000734367,-0.00897888
20,5,0,0,0,0,0,0,231.8,254,0,0,0,0,0,0,0,231.8,766,0,0.00107426,0.000225677,0.000363655,0.0153656,0.00442013,-0.00031456,-4.2038e-05,0.000913658,-0.0141274,3.03648e-05,-0.000218506,0.0131076,-0.0218848,-0.000505409,0.000505486,-0.00875
20,6,0,0,0,0,0,0,231.8,254,0,0,0,0,0,0,0,231.8,766,0,-0.000260887,0.000149383,9.66262e-05,0.0170822,0.0047253,-0.000123825,0.00110237,0.00026516,-0.0645959,0.00113663,0.000391846,0.0141375,-0.0208929,0.00147823,0.00119213,-0.00928406
20,7,0,0,0,0,0,0,231.8,254,0,0,0,0,0,0,0,231.8,766,0,0.000692788,0.000607147,0.000401802,0.0155563,0.00579342,0.000791702,-0.00027092,0.000684776,-0.0131738,0.000449982,0.000277405,0.0101702,-0.0207785,-0.000200233,-0.000791511,-0.00802521
20,8,0,0,0,0,0,0,231.8,254,0,0,0,0,0,0,0,231.8,766,0,0.0011124,0.000530853,0.000630684,0.0172348,0.00560268,0.000639114,0.00114052,0.000913658,0.0297416,-0.000961456,0.000697021,0.0120395,-0.020397,0.000944176,0.00161175,-0.00863556
20,9,0,0,0,0,0,0,231.8,254,0,0,0,0,0,0,0,231.8,766,0,0.000425759,0.000149383,0.00139362,0.0166244,0.00697597,0.00113502,0.00102608,0.000532188,0.0568259,0.000373688,0.000925903,0.0112002,-0.0206641,0.00124935,0.00111584,-0.00943665
21,0,0,0,0,0,0,0,231.8,254,0,0,0,0,0,0,0,231.8,766,0,-0.000337181,0.000988617,0.00055439,0.016777,0.00899776,0.00155464,0.000873489,-0.000192604,-0.0631844,0.000869598,-0.000447388,0.0114291,-0.0203207,0.00136379,0.00149731,-0.00718597
21,1,0,0,0,0,0,0,231.8,254,0,0,0,0,0,0,0,231.8,766,0,0.00160831,0.000454559,5.84793e-05,0.0168151,0.00865444,0.00109688,0.00125496,0.00148586,0.0411094,0.00128921,0.000925903,0.0127261,-0.0201682,0.00243191,0.00119213,-0.00852112
21,2,0,0,0,0,0,0,231.8,254,0,0,0,0,0,0,0,231.8,766,0,0.000273171,0.000645294,0.00101215,0.0172348,0.00850185,0.00124947,0.00175087,0.000379601,0.0490821,0.000335541,0.000391846,0.011391,-0.0208548,-9.49856e-06,0.00206951,-0.00703339
21,3,0,0,0,0,0,0,231.8,254,0,0,0,0,0,0,0,231.8,766,0,0.000692788,0.000874176,0.00124104,0.015747,0.00895962,0.00174538,0.00098793,0.000684776,-0.0579964,0.0002211,0.000620727,0.0155108,-0.02013,0.00227932,0.00206951,-0.00962738
21,4,0,0,0,0,0,0,231.8,254,0,0,0,0,0,0,0,231.8,766,0,0.000769082,0.000721588,5.84793e-05,0.0163192,0.00850185,0.00102058,0.00163643,0.00121883,0.0496543,0.0002211,8.66698e-05,0.0134127,-0.0202444,0.00109676,0.00210766,-0.00756744
21,5,0,0,0,0,0,0,231.8,254,0,0,0,0,0,0,0,231.8,766,0,0.000578347,7.30893e-05,0.00101215,0.0156326,0.00800594,0.000219498,0.00148384,0.000837364,0.0635017,-0.00054184,0.000735168,0.0158923,-0.0213889,0.000829735,0.00153545,-0.00798706
21,6,0,0,0,0,0,0,231.8,254,0,0,0,0,0,0,0,231.8,766,0,0.000769082,0.000530853,0.000706978,0.0155182,0.00651821,0.00132576,0.00102608,0.000722923,-0.0626122,0.00125107,0.000811462,0.0132602,-0.0200537,0.00147823,0.00138287,-0.00855927
21,7,0,0,0,0,0,0,231.8,254,0,0,0,0,0,0,0,231.8,766,0,0.00134129,0.000340118,0.000630684,0.0153274,0.00712856,-0.000161972,-8.0185e-05,0.000875511,0.0513328,0.000144806,0.000277405,0.0124591,-0.0220374,-8.57925e-05,0.000772514,-0.00676636
21,8,0,0,0,0,0,0,231.8,254,0,0,0,0,0,0,0,231.8,766,0,0.00115055,0.00102676,0.000783272,0.0168151,0.00678524,0.000753555,0.00098793,0.000494041,0.0720084,0.00071701,0.00107849,0.015549,-0.0201682,0.00102047,0.00115398,-0.00989441
21,9,0,0,0,0,0,0,231.8,254,0,0,0,0,0,0,0,231.8,766,0,0.0005402,0.000454559,0.00108845,0.0168533,0.00373348,0.000677261,0.000530167,0.000455895,-0.0740182,0.000984039,0.00046814,0.0138324,-0.0209692,0.000677147,9.57493e-06,-0.00909332
22,0,0,0,0,0,0,0,231.8,254,0,0,0,0,0,0,0,231.8,766,0,0.000273171,-3.20468e-06,-1.78147e-05,0.0155182,0.00289425,0.000677261,7.24029e-05,0.00114254,-0.0287377,-0.000122223,0.000162964,0.0131076,-0.0202826,0.000677147,0.000772514,-0.00924591
22,1,0,0,0,0,0,0,231.8,254,0,0,0,0,0,0,0,231.8,766,0,0.000425759,0.000416412,0.00120289,0.0165481,0.00335201,0.000410232,0.000224991,0.00118069,-0.00859611,3.03648e-05,0.000773315,0.013222,-0.021427,0.00144009,0.00138287,-0.00951294
22,2,0,0,0,0,0,0,231.8,254,0,0,0,0,0,0,0,231.8,766,0,0.000502053,-0.00030838,0.000134773,0.0164337,0.00159725,0.000257645,0.000263138,0.000875511,0.0739158,-0.000122223,0.000239258,0.0130694,-0.0215414,0.000333824,0.000429192,-0.00886444
22,3,0,0,0,0,0,0,231.8,254,0,0,0,0,0,0,0,231.8,766,0,0.000730935,0.000569,-0.00020855,0.015213,0.0016354,0.000333939,0.000759048,-0.000154457,-0.0170647,0.00071701,0.000239258,0.0134509,-0.0196722,0.00136379,0.000886955,-0.00890259
22,4,0,0,0,0,0,0,231.8,254,0,0,0,0,0,0,0,231.8,766,0,0.000196877,-0.000651703,0.000249214,0.0152893,-0.000500832,0.000219498,-0.000576096,0.000112572,-0.0289666,0.00109848,-0.00178253,0.014252,-0.0213126,0.000143089,-0.000600777,-0.00882629
22,5,0,0,0,0,0,0,231.8,254,0,0,0,0,0,0,0,231.8,766,0,0.000387612,0.000530853,5.84793e-05,0.015747,0.00247463,0.000448379,0.000224991,0.00076107,0.0816215,6.85118e-05,0.000353699,0.0205462,-0.0212744,-0.00100132,0.00058178,-0.00798706
22,6,0,0,0,0,0,0,231.8,254,0,0,0,0,0,0,0,231.8,766,0,0.000692788,0.00018753,0.00116474,0.0159759,0.0054501,0.000600967,0.000682754,0.000494041,-0.0232827,0.0014418,0.00172699,0.0197833,-0.0205115,0.00124935,0.00115398,-0.007453
22,7,0,0,0,0,0,0,231.8,254,0,0,0,0,0,0,0,231.8,766,0,0.00157017,0.000492706,0.00055439,0.0164718,0.00701412,0.00185982,0.00106422,0.000532188,-0.0242745,0.000640716,-0.000599976,0.0148623,-0.0213126,0.0012875,0.00142101,-0.00741486
22,8,0,0,0,0,0,0,231.8,254,0,0,0,0,0,0,0,231.8,766,0,0.000959816,0.00144638,0.00131733,0.01651,0.00773891,0.000448379,0.00220863,0.00175289,0.0950874,0.000945892,0.00203217,0.0122683,-0.0199393,0.00262264,0.00206951,-0.00787262
22,9,0,0,0,0,0,0,231.8,254,0,0,0,0,0,0,0,231.8,766,0,0.000273171,0.000607147,0.000325508,0.0162048,0.00510677,0.000677261,-0.00065239,0.000341454,-0.0185525,0.00071701,-0.000142212,0.0155108,-0.0209311,-0.000734291,-0.00056263,-0.00756744
23,0,0,0,0,0,0,0,231.8,254,0,0,0,0,0,0,0,231.8,766,0,0.000845375,0.000225677,-0.000170403,0.0153656,0.00247463,0.000829849,0.000644607,0.000341454,-0.0275933,0.000106659,0.00058258,0.0198214,-0.0201682,0.00124935,0.000162163,-0.00829224
23,1,0,0,0,0,0,0,231.8,254,0,0,0,0,0,0,0,231.8,766,0,0.000425759,0.000149383,0.00139362,0.0162429,0.00308498,0.000753555,0.00129311,0.000608482,0.0995506,0.00106033,0.00138367,0.0230639,-0.0203589,0.000791588,0.00134472,-0.00985626
23,2,0,0,0,0,0,0,231.8,254,0,0,0,0,0,0,0,231.8,766,0,-0.00022274,-0.000232087,0.000478096,0.0160522,0.0054501,0.00182167,0.000377579,0.000150719,-0.0147378,0.000907745,-6.59181e-05,0.022301,-0.0208929,0.000486412,0.00119213,-0.00798706
23,3,0,0,0,0,0,0,231.8,254,0,0,0,0,0,0,0,231.8,766,0,0.000654641,0.00102676,0.000325508,0.0160141,0.00846371,0.000295792,0.000644607,0.000608482,-0.0641,0.000411835,0.000391846,0.0144427,-0.0199393,0.000677147,0.00020031,-0.00844482
23,4,0,0,0,0,0,0,231.8,254,0,0,0,0,0,0,0,231.8,766,0,-3.20049e-05,-3.20468e-06,-9.41086e-05,0.0167389,0.00915035,0.000105057,0.000644607,0.000570335,-0.013746,0.000640716,0.000391846,0.0135653,-0.0206259,0.000867882,0.00176434,-0.00733856
23,5,0,0,0,0,0,0,231.8,254,0,0,0,0,0,0,0,231.8,766,0,-0.000337181,0.00095047,0.0010503,0.0160522,0.00617489,0.000333939,0.000911636,0.000532188,0.053736,0.000907745,1.03759e-05,0.0146716,-0.0208548,0.000829735,0.00149731,-0.00882629
23,6,0,0,0,0,0,0,231.8,254,0,0,0,0,0,0,0,231.8,766,0,0.000692788,0.000225677,0.000287361,0.0150604,0.00674709,0.00109688,0.000263138,0.000684776,0.201136,-0.000122223,0.000201111,0.0172274,-0.0197104,0.000944176,0.00123028,-0.0081015
23,7,0,0,0,0,0,0,231.8,254,0,0,0,0,0,0,0,231.8,766,0,4.4289e-05,0.000492706,0.000783272,0.0164718,0.0048016,0.000219498,-0.000156479,0.00026516,0.174967,0.00071701,0.000925903,0.0184863,-0.0210455,0.000448265,0.00107769,-0.00737671
23,8,0,0,0,0,0,0,231.8,254,0,0,0,0,0,0,0,231.8,766,0,0.00015873,0.000492706,0.000897713,0.0165481,0.00239834,0.000677261,0.00148384,0.00137142,0.13827,0.000449982,0.000620727,0.0157016,-0.0210837,0.000219383,0.000810661,-0.00825409
23,9,0,0,0,0,0,0,231.8,254,0,0,0,0,0,0,0,231.8,766,0,-0.000146446,0.000149383,0.000821419,0.0156707,0.0022076,0.000372085,0.000415726,-1.86916e-06,-0.010122,0.00106033,-0.000447388,0.0148623,-0.0201682,0.000753441,-0.000143013,-0.00714783
24,0,0,0,0,0,0,0,231.8,254,0,0,0,0,0,0,0,231.8,766,0,0.000578347,0.000912323,0.000668831,0.0158233,0.00392422,0.00147835,-8.0185e-05,0.000684776,-0.135168,0.00102219,0.000925903,0.0140231,-0.0204733,0.000753441,0.0010014,-0.00871185
24,1,0,0,0,0,0,0,231.8,254,0,0,0,0,0,0,0,231.8,766,0,0.000578347,0.00018753,0.00116474,0.0163955,0.0048016,0.00102058,0.0013694,0.000722923,0.00269539,-0.000427399,-2.77711e-05,0.0114672,-0.0209311,0.000829735,0.000772514,-0.00787262
24,2,0,0,0,0,0,0,231.8,254,0,0,0,0,0,0,0,231.8,766,0,0.00103611,-0.000270233,0.00162251,0.0169296,0.00419125,0.00140205,0.00106422,0.000455895,0.0135291,0.00201401,0.000849609,0.0102084,-0.0203589,0.00151638,0.00123028,-0.00756744
24,3,0,0,0,0,0,0,231.8,254,0,0,0,0,0,0,0,231.8,766,0,0.000807228,0.00110306,-0.00032299,0.0153656,0.00354275,0.00105873,0.00129311,0.00106625,-0.114187,-4.59291e-05,0.000544433,0.00738552,-0.0204733,0.000677147,0.000391045,-0.00798706
24,4,0,0,0,0,0,0,231.8,254,0,0,0,0,0,0,0,231.8,766,0,0.0005402,0.000836029,0.00135548,0.0162811,0.00621304,0.00124947,0.000720901,0.000837364,0.00998146,0.00113663,0.000239258,0.00879696,-0.0195197,0.000562706,0.000963249,-0.00718597
24,5,0,0,0,0,0,0,231.8,254,0,0,0,0,0,0,0,231.8,766,0,0.000692788,0.00144638,0.00127918,0.0169677,0.00300869,0.00117317,0.00163643,0.000913658,0.0337852,0.00125107,0.000506287,0.0082629,-0.0207022,0.00109676,0.00153545,-0.00775818
24,6,0,0,0,0,0,0,231.8,254,0,0,0,0,0,0,0,231.8,766,0,0.000807228,0.00144638,0.00120289,0.0167389,-8.12148e-05,2.87627e-05,0.000377579,0.00106625,-0.109838,0.000984039,0.000620727,0.0135272,-0.0218848,0.000639,0.00107769,-0.0081778
24,7,0,0,0,0,0,0,231.8,254,0,0,0,0,0,0,0,231.8,766,0,0.000311318,0.00125565,0.00124104,0.0162048,-0.000615272,0.000715408,0.00121681,3.62778e-05,-0.0577676,0.00170883,0.00184143,0.0151675,-0.0205496,0.000219383,9.57493e-06,-0.00859741
24,8,0,0,0,0,0,0,231.8,254,0,0,0,0,0,0,0,231.8,766,0,0.00015873,0.0012175,0.00108845,0.0173874,0.000300255,0.000677261,0.000835342,0.000341454,-0.0315987,-7.78213e-06,0.000620727,0.0149768,-0.019863,0.00124935,0.000734367,-0.00943665
24,9,0,0,0,0,0,0,231.8,254,0,0,0,0,0,0,0,231.8,766,0,0.000502053,0.000225677,0.00055439,0.0162429,0.00049099,-0.000467148,0.000224991,0.000379601,0.0519431,0.000869598,1.03759e-05,0.0153201,-0.0209692,0.000333824,0.000238457,-0.00798706
25,0,0,0,0,0,0,0,231.8,254,0,0,0,0,0,0,0,231.8,766,0,-0.00144344,0.000759735,0.000478096,0.0157089,0.000681725,0.000219498,0.000224991,-0.000268898,-0.0421655,0.000488129,0.000620727,0.0176852,-0.02013,0.000639,8.58689e-05,-0.00993256
25,1,0,0,0,0,0,0,231.8,254,0,0,0,0,0,0,0,231.8,766,0,-0.000642356,-0.00030838,-0.00032299,0.01548,-0.000729713,0.000867996,0.000377579,0.000379601,-0.0408685,-0.000503693,-0.000218506,0.0202029,-0.0208167,0.000906029,-0.000143013,-0.00890259
25,2,0,0,0,0,0,0,231.8,254,0,0,0,0,0,0,0,231.8,766,0,4.4289e-05,0.00018753,-0.000132256,0.015213,0.000452843,-0.000352707,0.000682754,0.000112572,0.0681556,-0.00054184,-0.000638123,0.0201648,-0.0212744,-0.0012302,8.58689e-05,-0.00794891
25,3,0,0,0,0,0,0,231.8,254,0,0,0,0,0,0,0,231.8,766,0,0.000196877,0.00095047,0.000287361,0.0154037,-0.000424538,6.69097e-05,0.000759048,3.62778e-05,-0.0311028,0.000488129,-0.000599976,0.0149005,-0.0196341,0.000867882,0.000276604,-0.00871185
25,4,0,0,0,0,0,0,231.8,254,0,0,0,0,0,0,0,231.8,766,0,6.14207e-06,-0.000346527,-0.000361137,0.0147934,-0.00179783,0.000677261,0.000148697,-0.00114628,-0.0296532,0.000945892,0.000277405,0.0105136,-0.0216177,0.000295677,-0.000677071,-0.00768188
25,5,0,0,0,0,0,0,231.8,254,0,0,0,0,0,0,0,231.8,766,0,-0.000108299,0.000607147,0.000401802,0.0155944,7.13731e-05,-9.38424e-06,-0.000309067,0.000303307,0.0899375,-0.00153366,0.000353699,0.0110476,-0.0223425,0.000181236,0.00126843,-0.00764374
25,6,0,0,0,0,0,0,231.8,254,0,0,0,0,0,0,0,231.8,766,0,0.0005402,0.000492706,-1.78147e-05,0.0158233,0.00194057,0.000410232,-0.000423508,0.000227013,-0.0202309,0.000373688,0.00130737,0.00879696,-0.0209692,0.000867882,0.00103954,-0.0100851
25,7,0,0,0,0,0,0,231.8,254,0,0,0,0,0,0,0,231.8,766,0,0.000273171,0.000874176,0.000745125,0.0166244,0.00258907,0.00094429,0.000530167,0.000417748,-0.0246941,0.00071701,0.00107849,0.00910213,-0.02013,0.000104942,0.000238457,-0.0081015
25,8,0,0,0,0,0,0,231.8,254,0,0,0,0,0,0,0,231.8,766,0,0.000959816,0.000378265,0.00158436,0.0170822,0.00239834,0.00113502,0.0013694,0.000989952,0.103327,0.000640716,0.00046814,0.0100177,-0.0197485,0.00117306,0.00184063,-0.00943665
25,9,0,0,0,0,0,0,231.8,254,0,0,0,0,0,0,0,231.8,766,0,-0.000108299,0.00129379,0.000325508,0.016777,0.007243,0.00121132,0.00110237,0.000341454,-0.0129067,0.00117477,0.000849609,0.00986507,-0.020397,0.000562706,0.00069622,-0.00772003
26,0,0,0,0,0,0,0,231.8,254,0,0,0,0,0,0,0,231.8,766,0,0.000311318,0.000607147,0.000287361,0.0154037,0.00449642,0.000639114,0.000720901,0.000379601,-0.0595223,0.000373688,0.000391846,0.0140994,-0.0208929,0.000715294,0.00138287,-0.00989441
26,1,0,0,0,0,0,0,231.8,254,0,0,0,0,0,0,0,231.8,766,0,0.000845375,0.000759735,0.000516243,0.0157089,0.00495419,0.000410232,0.000644607,0.000570335,-0.00928276,0.000831451,-0.000180359,0.0156634,-0.0207785,-0.000810585,0.00103954,-0.0081778
26,2,0,0,0,0,0,0,231.8,254,0,0,0,0,0,0,0,231.8,766,0,0.000196877,0.000454559,0.000897713,0.0160141,0.00922665,0.000867996,0.00110237,-0.000154457,0.0338233,0.000488129,0.00104034,0.0166934,-0.0212363,0.00105862,0.000467339,-0.00813965
26,3,0,0,0,0,0,0,231.8,254,0,0,0,0,0,0,0,231.8,766,0,8.2436e-05,0.000836029,0.000363655,0.0156326,0.00728115,0.000639114,0.00049202,0.000608482,0.0569404,0.000449982,1.03759e-05,0.0153582,-0.0206259,0.000600853,0.00058178,-0.00882629
26,4,0,0,0,0,0,0,231.8,254,0,0,0,0,0,0,0,231.8,766,0,-7.01519e-05,0.000301971,0.000706978,0.0163574,0.00663265,0.000524673,0.000339432,-0.000841103,-0.0556695,0.000411835,0.000162964,0.0131839,-0.0205878,0.000944176,-0.000219307,-0.00882629
26,5,0,0,0,0,0,0,231.8,254,0,0,0,0,0,0,0,231.8,766,0,6.14207e-06,-0.000766144,-0.000132256,0.015747,0.00812038,0.000181351,0.000377579,0.000951805,0.048014,-8.40761e-05,0.00104034,0.0139087,-0.0208929,0.000944176,-2.8572e-05,-0.00905518
26,6,0,0,0,0,0,0,231.8,254,0,0,0,0,0,0,0,231.8,766,0,0.00137943,0.000797882,0.000249214,0.0162048,0.00834927,0.000524673,0.000720901,-7.81631e-05,0.0519813,0.000755157,-0.00067627,0.0194018,-0.0206641,0.00155453,0.000467339,-0.00791077
26,7,0,0,0,0,0,0,231.8,254,0,0,0,0,0,0,0,231.8,766,0,0.000845375,0.0012175,0.00139362,0.0159759,0.00621304,0.00140205,0.00049202,0.000608482,-0.0513589,0.00155624,0.000658874,0.0203173,-0.0209311,0.000791588,0.000772514,-0.00844482
26,8,0,0,0,0,0,0,231.8,254,0,0,0,0,0,0,0,231.8,766,0,0.000769082,0.000378265,-1.78147e-05,0.0161285,0.00541195,0.000486526,0.000759048,0.000913658,0.0555671,0.000488129,-0.000485535,0.0165026,-0.0206641,0.00102047,0.00103954,-0.0093985
26,9,0,0,0,0,0,0,231.8,254,0,0,0,0,0,0,0,231.8,766,0,0.000235024,0.000912323,0.00166065,0.0168151,0.00911221,0.000524673,0.00117867,-7.81631e-05,0.0671638,0.00128921,0.0010022,0.0147097,-0.0215796,0.000906029,0.000619926,-0.00821594
27,0,0,0,0,0,0,0,231.8,254,0,0,0,0,0,0,0,231.8,766,0,0.000845375,0.000492706,0.000859566,0.0152893,0.00937923,0.000486526,0.000873489,0.000150719,-0.0556313,0.000297394,0.000353699,0.0179522,-0.02013,0.000181236,0.000658073,-0.00813965
27,1,0,0,0,0,0,0,231.8,254,0,0,0,0,0,0,0,231.8,766,0,-0.000260887,0.000378265,0.000211067,0.0155563,0.00838741,-0.000161972,-0.000232773,-0.000154457,0.0554908,6.85118e-05,0.00046814,0.0168078,-0.0215414,-0.000352821,-0.000143013,-0.00951294
27,2,0,0,0,0,0,0,231.8,254,0,0,0,0,0,0,0,231.8,766,0,0.000235024,-7.94986e-05,0.000745125,0.0154037,0.00762447,0.000333939,0.00060646,-7.81631e-05,0.0729621,0.00106033,8.66698e-05,0.0150912,-0.0207404,0.000181236,0.000543633,-0.00905518
27,3,0,0,0,0,0,0,231.8,254,0,0,0,0,0,0,0,231.8,766,0,-0.00022274,0.000301971,-0.000132256,0.0162429,0.00495419,-0.000123825,0.000568314,0.000341454,-0.0678002,0.000945892,0.000162964,0.0142901,-0.0202826,0.000753441,0.000467339,-0.00863556
27,4,0,0,0,0,0,0,231.8,254,0,0,0,0,0,0,0,231.8,766,0,0.000387612,0.00102676,0.00146992,0.0154419,0.00636562,0.000715408,0.00110237,0.000227013,-0.0217187,0.00113663,0.000506287,0.0126879,-0.02013,0.00025753,0.000238457,-0.00737671
27,5,0,0,0,0,0,0,231.8,254,0,0,0,0,0,0,0,231.8,766,0,0.00141758,0.00102676,0.00101215,0.0160522,0.00815853,0.00056282,0.000453873,0.000684776,-0.000699691,-8.40761e-05,0.000773315,0.0149768,-0.0202826,-0.000925026,0.00123028,-0.00901703
27,6,0,0,0,0,0,0,231.8,254,0,0,0,0,0,0,0,231.8,766,0,0.000273171,-0.000537262,0.000249214,0.0162429,0.00998959,6.69097e-05,0.000377579,0.000227013,0.076052,0.00071701,0.0010022,0.0133746,-0.0210837,0.000104942,0.000238457,-0.00878815
27,7,0,0,0,0,0,0,231.8,254,0,0,0,0,0,0,0,231.8,766,0,0.000425759,0.000149383,0.000516243,0.0159378,0.00590786,0.000524673,0.00121681,0.000227013,-0.0163018,0.000144806,0.000925903,0.0142138,-0.0202826,0.000944176,0.00195507,-0.00943665
27,8,0,0,0,0,0,0,231.8,254,0,0,0,0,0,0,0,231.8,766,0,0.00153202,0.000263824,0.000974007,0.0155944,0.00426754,0.000524673,-3.89107e-06,0.000150719,-0.0212991,-0.000427399,0.000124817,0.0134127,-0.0211218,0.00102047,0.00058178,-0.00833038
27,9,0,0,0,0,0,0,231.8,254,0,0,0,0,0,0,0,231.8,766,0,0.00015873,-0.000613556,-0.000132256,0.0162048,0.0073193,0.00105873,0.000835342,0.000150719,0.0817359,0.000297394,-0.000523682,0.0123446,-0.02116,0.000371971,0.000352898,-0.00756744
28,0,0,0,0,0,0,0,231.8,254,0,0,0,0,0,0,0,231.8,766,0,0.000463906,0.000149383,0.000745125,0.0159378,0.00384792,0.000600967,0.00133125,-0.000268898,-0.0187051,0.00159439,-0.000371094,0.012955,-0.0216559,0.00102047,0.000734367,-0.00760559
28,1,0,0,0,0,0,0,231.8,254,0,0,0,0,0,0,0,231.8,766,0,0.000769082,-0.00030838,0.000478096,0.0165481,0.00361904,0.000372085,0.00102608,-0.00011631,-0.0208031,0.0015181,0.000162964,0.0135653,-0.0219229,0.000333824,0.00069622,-0.00936035
28,2,0,0,0,0,0,0,231.8,254,0,0,0,0,0,0,0,231.8,766,0,0.000921669,0.00106491,0.00116474,0.0160141,0.00201687,0.000829849,3.42559e-05,7.44248e-05,0.0963844,0.000526275,0.000773315,0.0130313,-0.0193671,0.000829735,0.00115398,-0.00871185
28,3,0,0,0,0,0,0,231.8,254,0,0,0,0,0,0,0,231.8,766,0,0.0005402,0.000492706,0.00146992,0.017044,0.00331387,0.00056282,0.00121681,0.000989952,-0.0147759,-8.40761e-05,0.00145996,0.0132983,-0.0205878,0.00105862,0.00145916,-0.00936035
28,4,0,0,0,0,0,0,231.8,254,0,0,0,0,0,0,0,231.8,766,0,0.000807228,-0.00107132,0.000249214,0.01651,0.00232204,0.000600967,-4.2038e-05,-0.000307045,-0.0246178,0.000640716,0.000391846,0.0127642,-0.0197867,0.00124935,0.000467339,-0.00901703
28,5,0,0,0,0,0,0,231.8,254,0,0,0,0,0,0,0,231.8,766,0,-7.01519e-05,0.000340118,-0.000284843,0.0151748,-0.000462685,-4.75312e-05,-0.000156479,3.62778e-05,0.0992835,-0.000694428,-0.000142212,0.0120395,-0.0213507,0.000562706,0.000429192,-0.00985626
28,6,0,0,0,0,0,0,231.8,254,0,0,0,0,0,0,0,231.8,766,0,8.2436e-05,-0.000117646,0.000859566,0.0159378,0.000223961,-0.000123825,0.00011055,-0.000307045,-0.0123345,0.000182953,-0.000752564,0.0131457,-0.0207404,0.000562706,0.000314751,-0.00848297
28,7,0,0,0,0,0,0,231.8,254,0,0,0,0,0,0,0,231.8,766,0,0.000425759,0.000607147,0.000592537,0.0157852,0.00174984,0.000257645,-0.000385361,0.000722923,-0.0608575,0.000907745,0.000391846,0.0137942,-0.0203589,0.000333824,0.000734367,-0.00913147
28,8,0,0,0,0,0,0,231.8,254,0,0,0,0,0,0,0,231.8,766,0,0.000807228,0.000530853,0.000516243,0.01651,-0.000844154,0.000257645,0.00106422,0.000799217,-0.011953,0.000297394,0.000162964,0.0125735,-0.0202063,0.00025753,0.0010014,-0.00882629
28,9,0,0,0,0,0,0,231.8,254,0,0,0,0,0,0,0,231.8,766,0,-0.000184593,-0.000422821,0.00108845,0.0163955,0.000147667,0.000791702,0.00140755,0.000150719,0.0329459,0.00113663,0.00046814,0.0124972,-0.0213889,0.000448265,0.000352898,-0.00970367
29,0,0,0,0,0,0,0,231.8,254,0,0,0,0,0,0,0,231.8,766,0,0.0011887,0.000836029,0.00017292,0.0159378,-8.12148e-05,0.000524673,0.000949783,0.00106625,0.0545371,-0.000503693,0.000391846,0.0141757,-0.0205115,0.000944176,0.00161175,-0.0081015
29,1,0,0,0,0,0,0,231.8,254,0,0,0,0,0,0,0,231.8,766,0,0.00153202,0.000721588,0.00093586,0.0154419,-0.00126377,0.000829849,0.00171272,0.00156216,-0.0600945,0.00121292,-0.000218506,0.0118106,-0.0200156,0.00102047,0.00164989,-0.00825409
29,2,0,0,0,0,0,0,231.8,254,0,0,0,0,0,0,0,231.8,766,0,0.000463906,0.000912323,0.00124104,0.0158996,-0.00294224,0.000639114,0.00171272,0.000608482,0.0447334,0.000640716,0.00058258,0.0120013,-0.0203589,0.000982323,0.00058178,-0.00791077
29,3,0,0,0,0,0,0,231.8,254,0,0,0,0,0,0,0,231.8,766,0,0.00130314,0.00095047,0.000974007,0.0163574,-4.92088e-06,0.000486526,0.0013694,0.00076107,0.0483955,0.000869598,0.000925903,0.0174182,-0.0195578,0.00178341,0.00111584,-0.00718597
29,4,0,0,0,0,0,0,231.8,254,0,0,0,0,0,0,0,231.8,766,0,0.000463906,0.000301971,0.000859566,0.0163192,0.000147667,0.000600967,0.00060646,0.000989952,-0.0580346,0.00170883,0.00161255,0.0185244,-0.0211218,0.00132565,0.00184063,-0.00833038
29,5,0,0,0,0,0,0,231.8,254,0,0,0,0,0,0,0,231.8,766,0,-0.000642356,0.00171341,0.000745125,0.0166244,-0.000348244,0.000982437,0.00182716,0.00129513,0.0492347,0.000945892,0.000620727,0.015816,-0.0210837,0.00132565,0.00164989,-0.00897888
29,6,0,0,0,0,0,0,231.8,254,0,0,0,0,0,0,0,231.8,766,0,-3.20049e-05,-4.13517e-05,0.0010503,0.0173874,-0.000653419,0.0014402,0.000911636,-0.000192604,0.0627769,0.00109848,0.00161255,0.0129931,-0.0198248,0.00132565,0.000925102,-0.0102759
29,7,0,0,0,0,0,0,231.8,254,0,0,0,0,0,0,0,231.8,766,0,0.00115055,0.000301971,-0.000132256,0.0165863,-0.00164524,0.00102058,0.000759048,0.000455895,-0.0615823,-8.40761e-05,0.000124817,0.0119632,-0.02013,0.000486412,0.00107769,-0.00825409
29,8,0,0,0,0,0,0,231.8,254,0,0,0,0,0,0,0,231.8,766,0,0.00168461,0.00171341,0.000974007,0.0164718,0.000300255,0.000982437,0.000873489,0.00110439,0.0509132,0.000793304,0.00123108,0.0107806,-0.0210837,0.00205044,0.00145916,-0.00875
29,9,0,0,0,0,0,0,231.8,254,0,0,0,0,0,0,0,231.8,766,0,0.0005402,0.000301971,0.000401802,0.0165481,-0.00160709,0.00140205,0.00125496,-0.000535927,0.0704063,0.00109848,0.000658874,0.0130694,-0.0205878,0.000562706,0.000505486,-0.00871185
30,0,0,0,0,0,0,0,231.8,254,0,0,0,0,0,0,0,231.8,766,0,0.000387612,0.000530853,0.000516243,0.0155563,-0.00431553,0.000295792,0.000263138,-0.000154457,-0.0729882,-0.000274811,0.00111664,0.0142901,-0.0208929,0.00025753,-0.000143013,-0.00966553
30,1,0,0,0,0,0,0,231.8,254,0,0,0,0,0,0,0,231.8,766,0,0.000273171,0.000263824,0.000859566,0.0163955,-0.00122562,0.000639114,-0.000156479,0.000570335,-0.0273644,0.000297394,0.000391846,0.014786,-0.0200537,0.000639,-0.000219307,-0.00916962
30,2,0,0,0,0,0,0,231.8,254,0,0,0,0,0,0,0,231.8,766,0,0.000502053,-0.000727997,0.000478096,0.0158615,-0.0021793,0.000486526,0.000682754,0.000494041,-0.00722282,-0.000236664,0.00123108,0.0140612,-0.0210074,0.000143089,0.00142101,-0.00802521
30,3,0,0,0,0,0,0,231.8,254,0,0,0,0,0,0,0,231.8,766,0,0.000311318,0.000607147,0.000211067,0.0163192,-0.00252262,0.000677261,0.00106422,7.44248e-05,0.0725425,0.0002211,0.000353699,0.0150531,-0.021427,0.000753441,0.0010014,-0.010047
30,4,0,0,0,0,0,0,231.8,254,0,0,0,0,0,0,0,231.8,766,0,0.00015873,-0.00019394,-0.000132256,0.015213,-0.000844154,0.000486526,-0.000232773,-0.00164219,-0.0196587,0.00132736,1.03759e-05,0.0153201,-0.0200537,0.000677147,8.58689e-05,-0.00684265
30,5,0,0,0,0,0,0,231.8,254,0,0,0,0,0,0,0,231.8,766,0,0.0005402,0.000492706,-0.000513725,0.0156707,0.000262108,-0.000390854,0.00049202,0.000722923,-0.0268304,3.03648e-05,-0.000752564,0.0129168,-0.0218848,0.00025753,0.000543633,-0.0093222
30,6,0,0,0,0,0,0,231.8,254,0,0,0,0,0,0,0,231.8,766,0,0.000463906,0.000645294,0.0010503,0.0164337,-0.000310097,0.000295792,3.42559e-05,-7.81631e-05,0.0782645,0.000678863,0.000925903,0.0135653,-0.0208929,0.000524559,0.000276604,-0.00913147
30,7,0,0,0,0,0,0,231.8,254,0,0,0,0,0,0,0,231.8,766,0,-0.000299034,0.000683441,-9.41086e-05,0.0162429,0.000948753,0.000829849,0.000644607,3.62778e-05,-0.0214898,0.000449982,8.66698e-05,0.0151675,-0.0190237,0.00117306,0.00058178,-0.00886444
30,8,0,0,0,0,0,0,231.8,254,0,0,0,0,0,0,0,231.8,766,0,0.000387612,0.000797882,-9.41086e-05,0.0154419,0.00335201,0.000715408,-0.000537949,0.000989952,-0.0239312,3.03648e-05,-0.0002948,0.0120395,-0.0205115,0.000944176,0.000314751,-0.010314
30,9,0,0,0,0,0,0,231.8,254,0,0,0,0,0,0,0,231.8,766,0,-0.000337181,-7.94986e-05,0.000745125,0.0158615,0.00548824,0.000867996,0.000682754,0.000303307,0.0931419,-0.000656281,0.000124817,0.0138324,-0.0202826,0.000410118,0.000352898,-0.00806335
31,0,0,0,0,0,0,0,231.8,254,0,0,0,0,0,0,0,231.8,766,0,0.00160831,0.000149383,0.000783272,0.0168533,0.00819668,0.000791702,0.00144569,0.00152401,-0.017904,0.000564422,0.00104034,0.0168078,-0.0212744,0.00147823,0.0015736,-0.00924591
31,1,0,0,0,0,0,0,231.8,254,0,0,0,0,0,0,0,231.8,766,0,0.000959816,-0.000232087,-0.000132256,0.0170059,0.0113629,0.000410232,0.000186844,0.000188866,-0.0261437,0.000182953,-0.000142212,0.0149386,-0.0211218,0.000600853,-0.000486336,-0.00768188
31,2,0,0,0,0,0,0,231.8,254,0,0,0,0,0,0,0,231.8,766,0,0.000196877,0.000530853,0.000287361,0.01548,0.00888332,0.000295792,0.000224991,0.000188866,0.0990546,0.000182953,-0.00067627,0.0132602,-0.0212744,0.000600853,0.00115398,-0.00718597
31,3,0,0,0,0,0,0,231.8,254,0,0,0,0,0,0,0,231.8,766,0,0.0005402,-0.000613556,5.84793e-05,0.015747,0.00712856,0.000219498,0.00011055,0.000837364,-0.0141274,-0.00054184,-0.000867005,0.0141375,-0.0215414,0.000448265,0.000848808,-0.00901703
31,4,0,0,0,0,0,0,231.8,254,0,0,0,0,0,0,0,231.8,766,0,0.0005402,-0.000613556,0.000859566,0.0163192,0.00987514,2.87627e-05,0.000568314,-0.000154457,-0.0621163,0.000526275,0.000773315,0.0153201,-0.02013,0.000829735,-6.6719e-05,-0.00791077
31,5,0,0,0,0,0,0,231.8,254,0,0,0,0,0,0,0,231.8,766,0,0.000578347,0.0011412,0.000859566,0.0163955,0.00728115,0.000753555,-0.000385361,-0.000192604,-0.0137078,0.000793304,1.03759e-05,0.0189822,-0.0205115,0.000639,0.00115398,-0.00779633
31,6,0,0,0,0,0,0,231.8,254,0,0,0,0,0,0,0,231.8,766,0,8.2436e-05,0.000569,0.00055439,0.0165863,0.00556454,0.00140205,0.000911636,0.00026516,0.028292,0.00136551,0.000239258,0.0139849,-0.0203207,0.00117306,-0.00113483,-0.00943665
31,7,0,0,0,0,0,0,231.8,254,0,0,0,0,0,0,0,231.8,766,0,0.00122685,0.0012175,0.00185139,0.016777,0.00632748,0.00132576,0.000835342,0.000799217,0.0595725,0.000564422,0.0015744,0.0152819,-0.0203207,0.00166897,0.000925102,-0.00768188
31,8,0,0,0,0,0,0,231.8,254,0,0,0,0,0,0,0,231.8,766,0,0.00103611,0.0012175,0.000287361,0.0170059,0.00804409,0.000715408,0.000911636,0.00106625,-0.0624978,-0.000236664,0.00123108,0.0136035,-0.019863,0.0018597,0.00153545,-0.00836853
31,9,0,0,0,0,0,0,231.8,254,0,0,0,0,0,0,0,231.8,766,0,0.000425759,0.000721588,0.00112659,0.0162429,0.00956997,0.00159279,0.000644607,0.000646629,0.0444663,0.00170883,0.000658874,0.0134127,-0.0192526,0.00189785,0.00020031,-0.00661377
32,0,0,0,0,0,0,0,231.8,254,0,0,0,0,0,0,0,231.8,766,0,0.00157017,0.000874176,0.000897713,0.0167389,0.0078915,0.00132576,0.00129311,0.0010281,0.0487388,0.000755157,0.000506287,0.0160067,-0.0202826,0.0012875,0.00153545,-0.0068808
32,1,0,0,0,0,0,0,231.8,254,0,0,0,0,0,0,0,231.8,766,0,0.000997963,0.00182785,0.000897713,0.0167389,0.0105618,0.00094429,0.000797195,0.00140957,-0.0600945,0.000945892,0.000735168,0.017113,-0.0209692,0.00201229,0.000810661,-0.00825409
32,2,0,0,0,0,0,0,231.8,254,0,0,0,0,0,0,0,231.8,766,0,0.00157017,0.00144638,0.000325508,0.0168151,0.00785336,0.000982437,-3.89107e-06,0.000799217,0.0491965,0.00136551,0.000162964,0.0213473,-0.0202444,0.000677147,0.000352898,-0.00737671
32,3,0,0,0,0,0,0,231.8,254,0,0,0,0,0,0,0,231.8,766,0,0.00015873,-0.000117646,-5.59617e-05,0.0158996,0.00716671,-0.000429001,0.000568314,0.000341454,0.0625098,6.85118e-05,-0.000142212,0.0223391,-0.0208929,-9.49856e-06,0.000467339,-0.00863556
32,4,0,0,0,0,0,0,231.8,254,0,0,0,0,0,0,0,231.8,766,0,-0.00022274,0.000912323,0.000897713,0.0161285,0.00689968,0.000829849,-0.000309067,-0.00087925,-0.0636803,0.00136551,-0.000256653,0.0157779,-0.0201682,0.000333824,0.00058178,-0.00775818
32,5,0,0,0,0,0,0,231.8,254,0,0,0,0,0,0,0,231.8,766,0,0.000616494,0.000988617,-0.000475578,0.0168151,0.00804409,0.000982437,0.000759048,0.00121883,0.0501884,-0.000236664,-0.000142212,0.0102465,-0.020397,0.0012112,0.00103954,-0.0093222
32,6,0,0,0,0,0,0,231.8,254,0,0,0,0,0,0,0,231.8,766,0,0.0005402,0.000492706,0.000859566,0.017044,0.00949368,0.000867996,0.000530167,0.00026516,0.0710929,0.000984039,8.66698e-05,0.0130313,-0.0193289,0.000982323,0.00153545,-0.00695709
32,7,0,0,0,0,0,0,231.8,254,0,0,0,0,0,0,0,231.8,766,0,0.000845375,0.00152267,0.000859566,0.0160141,0.00869259,0.0014402,0.000759048,0.000455895,-0.07398,0.000831451,0.000315552,0.0143664,-0.0197867,0.00147823,0.00115398,-0.00977997
32,8,0,0,0,0,0,0,231.8,254,0,0,0,0,0,0,0,231.8,766,0,0.000349465,0.00095047,0.000592537,0.0162811,0.00838741,0.000486526,0.00060646,-0.000535927,-0.027517,0.00117477,0.00046814,0.0155871,-0.0210455,0.00155453,0.000886955,-0.00966553
32,9,0,0,0,0,0,0,231.8,254,0,0,0,0,0,0,0,231.8,766,0,0.000807228,0.00152267,-1.78147e-05,0.0158615,0.00892147,0.00170723,0.000949783,0.000875511,0.000215836,0.0015181,0.000201111,0.0179141,-0.0207785,-9.49856e-06,0.00111584,-0.00730042
33,0,0,0,0,0,0,0,231.8,254,0,0,0,0,0,0,0,231.8,766,0,0.000273171,0.000836029,0.000706978,0.0169296,0.00709042,0.00056282,0.000873489,0.000494041,0.140063,0.00106033,0.0010022,0.019707,-0.0196341,0.00132565,0.000848808,-0.00852112
33,1,0,0,0,0,0,0,231.8,254,0,0,0,0,0,0,0,231.8,766,0,0.000845375,0.000492706,0.00154621,0.0168151,0.00445827,0.00132576,0.000873489,0.000684776,0.199381,0.00071701,0.000620727,0.0181048,-0.0205878,0.0018597,0.00069622,-0.00852112
33,2,0,0,0,0,0,0,231.8,254,0,0,0,0,0,0,0,231.8,766,0,0.000463906,0.000797882,0.00154621,0.0159378,0.00525936,0.00155464,0.000759048,0.000227013,0.159708,0.00117477,0.000277405,0.0160449,-0.0200919,0.00132565,0.00119213,-0.00821594
33,3,0,0,0,0,0,0,231.8,254,0,0,0,0,0,0,0,231.8,766,0,0.0011887,0.000378265,0.00108845,0.0168151,0.00499233,0.000829849,0.00060646,0.000494041,0.0901283,0.00128921,0.000544433,0.0163119,-0.0195197,0.00197414,0.0010014,-0.0081015
33,4,0,0,0,0,0,0,231.8,254,0,0,0,0,0,0,0,231.8,766,0,0.000273171,-0.000117646,0.000974007,0.0166626,0.0054501,0.00124947,0.000568314,0.000799217,-0.113538,0.00102219,0.00096405,0.0130313,-0.0198248,0.000982323,0.00138287,-0.00779633
33,5,0,0,0,0,0,0,231.8,254,0,0,0,0,0,0,0,231.8,766,0,-0.000108299,0.000454559,0.00101215,0.0156707,0.0041531,0.000333939,0.000453873,0.000379601,-0.078634,-0.000274811,-0.00067627,0.0136798,-0.0224188,0.000944176,0.00107769,-0.00798706
33,6,0,0,0,0,0,0,231.8,254,0,0,0,0,0,0,0,231.8,766,0,0.000425759,7.30893e-05,9.66262e-05,0.0160904,0.00476345,0.00109688,0.000263138,0.00106625,0.0461066,0.00178513,-2.77711e-05,0.0181048,-0.0199011,0.00105862,0.000848808,-0.00905518
33,7,0,0,0,0,0,0,231.8,254,0,0,0,0,0,0,0,231.8,766,0,0.000769082,0.00182785,0.000363655,0.0162048,0.00327572,0.00056282,0.000263138,3.62778e-05,-0.0692498,0.000564422,0.000697021,0.0162356,-0.0209692,0.000448265,-0.000524483,-0.00829224
33,8,0,0,0,0,0,0,231.8,254,0,0,0,0,0,0,0,231.8,766,0,8.2436e-05,-0.000270233,-5.59617e-05,0.0160141,0.00213131,0.000372085,3.42559e-05,0.000875511,-0.073446,-8.40761e-05,4.85228e-05,0.0108187,-0.0202826,0.000829735,0.00130657,-0.00943665
33,9,0,0,0,0,0,0,231.8,254,0,0,0,0,0,0,0,231.8,766,0,-0.000451622,-0.000155793,-0.000551872,0.0160141,0.00308498,0.00109688,3.42559e-05,-0.000688515,0.0614417,0.000945892,-0.00121033,0.00711849,-0.0207022,0.000143089,0.000505486,-0.00813965
34,0,0,0,0,0,0,0,231.8,254,0,0,0,0,0,0,0,231.8,766,0,0.000311318,0.000759735,0.000859566,0.0152511,0.00251278,0.000410232,0.000148697,0.000227013,-0.05216,0.000144806,0.000391846,0.0101321,-0.0199393,0.000867882,0.00145916,-0.0081015
34,1,0,0,0,0,0,0,231.8,254,0,0,0,0,0,0,0,231.8,766,0,0.000273171,0.00018753,-0.000475578,0.0162429,0.00258907,0.000410232,0.000682754,0.000837364,-0.0954949,0.000640716,-0.00113403,0.0116198,-0.0210455,0.000753441,-0.000104866,-0.00768188
34,2,0,0,0,0,0,0,231.8,254,0,0,0,0,0,0,0,231.8,766,0,0.000692788,0.00018753,0.000897713,0.0156707,0.0054501,0.00105873,0.000797195,0.000150719,-0.0410592,0.000411835,0.00046814,0.0130694,-0.0205115,0.000562706,0.000810661,-0.00962738
34,3,0,0,0,0,0,0,231.8,254,0,0,0,0,0,0,0,231.8,766,0,0.000616494,0.000111236,0.00135548,0.0155944,0.00697597,0.00105873,0.00098793,0.000837364,0.0088752,0.000640716,0.000506287,0.0113147,-0.020397,0.000677147,0.00184063,-0.00821594
34,4,0,0,0,0,0,0,231.8,254,0,0,0,0,0,0,0,231.8,766,0,0.000349465,-7.94986e-05,-0.000284843,0.0152893,0.00625118,0.000219498,7.24029e-05,-0.000688515,0.0317634,0.000411835,-6.59181e-05,0.0119632,-0.0209311,-4.76455e-05,-0.00105854,-0.00829224
34,5,0,0,0,0,0,0,231.8,254,0,0,0,0,0,0,0,231.8,766,0,0.000997963,0.000912323,0.000325508,0.0161285,0.00766262,0.000486526,0.000263138,0.000799217,-0.0776421,0.000678863,0.000124817,0.0119632,-0.0211218,0.00109676,0.00103954,-0.00901703
34,6,0,0,0,0,0,0,231.8,254,0,0,0,0,0,0,0,231.8,766,0,-0.000108299,-3.20468e-06,-0.000246697,0.0156707,0.00934109,-9.38424e-06,0.00049202,-0.000383339,0.0317634,0.0002211,-0.000943298,0.00818661,-0.0215796,-4.76455e-05,0.000467339,-0.00821594
34,7,0,0,0,0,0,0,231.8,254,0,0,0,0,0,0,0,231.8,766,0,-0.000451622,0.000111236,0.000668831,0.0151367,0.00823482,0.000333939,0.000797195,-0.000383339,0.0348533,0.00155624,-0.0002948,0.0110858,-0.0209311,0.00025753,-6.6719e-05,-0.00871185
34,8,0,0,0,0,0,0,231.8,254,0,0,0,0,0,0,0,231.8,766,0,0.000616494,0.000111236,0.000516243,0.0165481,0.00934109,0.000829849,0.00098793,0.000989952,-0.0642144,-0.000351105,0.000162964,0.0136798,-0.0197485,0.0012112,0.00111584,-0.00966553
34,9,0,0,0,0,0,0,231.8,254,0,0,0,0,0,0,0,231.8,766,0,0.00107426,0.00117935,0.00108845,0.0165863,0.00560268,0.00132576,0.000682754,0.000303307,0.0458396,0.00147995,-0.000638123,0.0142901,-0.0192526,0.00159267,0.000467339,-0.00741486
35,0,0,0,0,0,0,0,231.8,254,0,0,0,0,0,0,0,231.8,766,0,0.000997963,0.000721588,0.000706978,0.0164718,0.00663265,0.000791702,0.000530167,0.000989952,0.0590385,0.000640716,1.03759e-05,0.0135653,-0.0198248,0.00117306,0.00119213,-0.00821594
35,1,0,0,0,0,0,0,231.8,254,0,0,0,0,0,0,0,231.8,766,0,0.000273171,-0.000460968,0.000325508,0.0159378,0.00510677,-0.000200119,0.000301285,-0.000230751,-0.0626122,0.00071701,0.000620727,0.0140231,-0.0210837,0.000410118,0.00058178,-0.00928406
35,2,0,0,0,0,0,0,231.8,254,0,0,0,0,0,0,0,231.8,766,0,-3.20049e-05,0.000874176,0.000516243,0.017044,0.00514492,0.00166908,0.00110237,0.000570335,0.0510276,0.00132736,0.000315552,0.0165789,-0.0196341,0.000867882,0.00149731,-0.00802521
35,3,0,0,0,0,0,0,231.8,254,0,0,0,0,0,0,0,231.8,766,0,0.000959816,0.000607147,0.00124104,0.0169296,0.00327572,0.00140205,0.00159828,0.000227013,0.0714362,0.000831451,0.000697021,0.014519,-0.0200537,0.000448265,0.000314751,-0.0075293
35,4,0,0,0,0,0,0,231.8,254,0,0,0,0,0,0,0,231.8,766,0,0.0005402,0.000645294,0.000630684,0.0159378,0.00125393,0.00159279,0.000835342,-0.000154457,-0.0692117,0.000488129,0.000506287,0.0164645,-0.0208167,0.00102047,0.00149731,-0.00695709
35,5,0,0,0,0,0,0,231.8,254,0,0,0,0,0,0,0,231.8,766,0,-0.000413475,0.00171341,0.000897713,0.0167389,-4.92088e-06,0.000982437,0.00114052,0.000341454,-0.0223672,3.03648e-05,1.03759e-05,0.0166934,-0.0204733,0.000753441,0.00126843,-0.00775818
35,6,0,0,0,0,0,0,231.8,254,0,0,0,0,0,0,0,231.8,766,0,0.00145573,-0.000155793,0.000325508,0.01651,-0.000233803,0.000715408,0.00129311,0.000989952,-0.000852279,0.00128921,-0.000104065,0.0162738,-0.0202063,0.0018597,0.0010014,-0.00802521
35,7,0,0,0,0,0,0,231.8,254,0,0,0,0,0,0,0,231.8,766,0,0.000959816,0.00137009,0.000211067,0.0167007,0.00571712,0.00136391,0.00121681,0.000837364,0.0756705,-8.40761e-05,0.000162964,0.014786,-0.0196722,0.000524559,0.00237469,-0.00772003
35,8,0,0,0,0,0,0,231.8,254,0,0,0,0,0,0,0,231.8,766,0,0.00141758,0.00095047,0.00166065,0.0161285,0.0054501,0.00132576,0.00213234,0.00076107,-0.0143945,0.000793304,0.0010022,0.0141757,-0.0203589,0.00243191,0.00134472,-0.00806335
35,9,0,0,0,0,0,0,231.8,254,0,0,0,0,0,0,0,231.8,766,0,0.000845375,0.000569,0.00108845,0.0155944,0.00434383,0.00185982,0.00144569,0.000608482,-0.0190865,0.00147995,0.00046814,0.013489,-0.0193289,0.000867882,0.00149731,-0.00867371
36,0,0,0,0,0,0,0,231.8,254,0,0,0,0,0,0,0,231.8,766,0,0.00145573,0.00110306,0.00127918,0.0172729,0.00251278,0.000486526,0.000835342,0.000989952,0.0845206,-0.000198517,0.000239258,0.0134127,-0.02013,0.000867882,0.00069622,-0.00836853
36,1,0,0,0,0,0,0,231.8,254,0,0,0,0,0,0,0,231.8,766,0,4.4289e-05,0.000988617,0.000974007,0.0175018,0.000834313,0.00124947,0.00114052,0.000379601,-0.0144707,0.0014418,0.0022229,0.0150149,-0.0200156,0.00109676,0.00176434,-0.00699524
36,2,0,0,0,0,0,0,231.8,254,0,0,0,0,0,0,0,231.8,766,0,0.000311318,0.000569,0.00124104,0.015747,0.00251278,0.00159279,0.00117867,-7.81631e-05,-0.0155389,6.85118e-05,0.000201111,0.0159686,-0.0210837,0.00166897,0.00142101,-0.00871185
36,3,0,0,0,0,0,0,231.8,254,0,0,0,0,0,0,0,231.8,766,0,0.000311318,0.000416412,0.000287361,0.0168533,0.00468716,0.000448379,0.00121681,0.00152401,0.0989402,0.00109848,0.000620727,0.0142901,-0.0197867,0.00132565,0.00172619,-0.00840668
36,4,0,0,0,0,0,0,231.8,254,0,0,0,0,0,0,0,231.8,766,0,0.000921669,0.000454559,0.000287361,0.0155563,0.00449642,0.00109688,0.00060646,0.000341454,-0.0107705,0.000259247,0.000925903,0.0126879,-0.0200156,0.000562706,0.00119213,-0.0081015
36,5,0,0,0,0,0,0,231.8,254,0,0,0,0,0,0,0,231.8,766,0,-7.01519e-05,0.0012175,0.00131733,0.0158233,0.00247463,0.00105873,0.00140755,0.000608482,-0.0191247,0.0015181,0.00126923,0.010094,-0.0205115,0.00159267,0.00134472,-0.0102759
36,6,0,0,0,0,0,0,231.8,254,0,0,0,0,0,0,0,231.8,766,0,0.000959816,0.00125565,0.00124104,0.0168533,0.00316128,0.00185982,0.00148384,3.62778e-05,0.103937,0.00140366,0.0010022,0.0114291,-0.0199774,0.00178341,0.00172619,-0.00737671
36,7,0,0,0,0,0,0,231.8,254,0,0,0,0,0,0,0,231.8,766,0,0.00126499,0.0011412,0.00131733,0.0159378,0.00255093,0.000600967,0.00114052,0.000799217,-0.00771873,0.000259247,0.000811462,0.014519,-0.0205496,0.000906029,0.000543633,-0.00871185
36,8,0,0,0,0,0,0,231.8,254,0,0,0,0,0,0,0,231.8,766,0,0.000349465,0.000797882,0.000859566,0.0165863,0.00304684,0.000639114,0.000949783,-0.000535927,-0.0557076,0.000373688,0.00104034,0.0124972,-0.0212363,-8.57925e-05,0.00123028,-0.00901703
36,9,0,0,0,0,0,0,231.8,254,0,0,0,0,0,0,0,231.8,766,0,0.000616494,0.000912323,0.000897713,0.0156326,0.00590786,0.000410232,-0.000118332,3.62778e-05,-0.00790947,0.00128921,0.000925903,0.0123065,-0.0207404,0.000753441,-0.00121113,-0.00756744
37,0,0,0,0,0,0,0,231.8,254,0,0,0,0,0,0,0,231.8,766,0,0.000959816,0.000530853,0.00108845,0.0164718,0.00571712,0.000791702,0.000720901,0.000646629,0.0334418,-7.78213e-06,0.0010022,0.014519,-0.0205115,0.00136379,0.0015736,-0.0101614
37,1,0,0,0,0,0,0,231.8,254,0,0,0,0,0,0,0,231.8,766,0,0.000311318,0.000492706,0.000897713,0.0172348,0.00377163,0.00117317,0.0013694,-0.000154457,0.0560249,0.000373688,0.00119293,0.0169604,-0.0203589,0.0018597,0.00111584,-0.00806335
37,2,0,0,0,0,0,0,231.8,254,0,0,0,0,0,0,0,231.8,766,0,0.00134129,0.000874176,0.000478096,0.0173111,0.0016354,0.00166908,0.00178902,0.000303307,-0.0560509,0.00117477,0.000811462,0.0174563,-0.0189856,0.00105862,-0.000257454,-0.00829224
37,3,0,0,0,0,0,0,231.8,254,0,0,0,0,0,0,0,231.8,766,0,0.000616494,0.000492706,0.00055439,0.0165863,0.00300869,0.00113502,0.00159828,0.00137142,0.047747,0.000182953,0.00134552,0.0182574,-0.0193671,0.00197414,0.00115398,-0.00836853
37,4,0,0,0,0,0,0,231.8,254,0,0,0,0,0,0,0,231.8,766,0,0.000654641,0.00117935,0.00108845,0.0166626,0.00510677,0.00140205,0.00182716,0.00076107,0.0506461,0.00106033,0.000925903,0.0179141,-0.0214651,0.000944176,0.00126843,-0.00813965
37,5,0,0,0,0,0,0,231.8,254,0,0,0,0,0,0,0,231.8,766,0,0.00172276,0.00125565,0.000859566,0.01651,0.00339016,0.00140205,0.00152199,7.44248e-05,-0.0529229,0.00117477,0.0015744,0.01841,-0.0196341,0.00205044,0.00107769,-0.00829224
37,6,0,0,0,0,0,0,231.8,254,0,0,0,0,0,0,0,231.8,766,0,0.000120583,0.000301971,-0.000170403,0.0169296,0.00213131,0.00113502,0.0019416,0.00076107,0.053202,0.00102219,0.000277405,0.0176471,-0.02116,0.0012875,-0.00018116,-0.0068045
37,7,0,0,0,0,0,0,231.8,254,0,0,0,0,0,0,0,231.8,766,0,0.000387612,-0.000155793,0.000439949,0.0160141,0.00255093,0.000639114,0.000301285,0.000150719,0.0646461,-0.000618134,-0.000332947,0.0167697,-0.02116,-4.76455e-05,0.000505486,-0.00871185
37,8,0,0,0,0,0,0,231.8,254,0,0,0,0,0,0,0,231.8,766,0,0.000463906,0.000607147,0.000706978,0.0164337,0.0040768,0.000791702,0.000873489,0.000227013,-0.0585686,0.000602569,0.000544433,0.0190585,-0.0197485,0.00109676,0.00069622,-0.00798706
37,9,0,0,0,0,0,0,231.8,254,0,0,0,0,0,0,0,231.8,766,0,-0.000108299,0.000149383,5.84793e-05,0.015213,0.000719872,0.00102058,-0.000385361,0.00026516,0.0526679,3.03648e-05,-0.000180359,0.0182956,-0.0213507,-0.000543556,-0.000905952,-0.00798706
38,0,0,0,0,0,0,0,231.8,254,0,0,0,0,0,0,0,231.8,766,0,0.000120583,0.000378265,9.66262e-05,0.015747,0.00331387,-0.000123825,0.00049202,-0.000459633,0.0701774,0.000259247,0.000201111,0.0192111,-0.0205115,0.0012875,-0.000677071,-0.00977997
38,1,0,0,0,0,0,0,231.8,254,0,0,0,0,0,0,0,231.8,766,0,0.000349465,-0.00030838,0.000783272,0.0164718,0.00514492,0.000219498,0.000301285,0.000150719,-0.071386,0.0002211,0.000773315,0.0234835,-0.0205115,0.000333824,0.000467339,-0.00806335
38,2,0,0,0,0,0,0,231.8,254,0,0,0,0,0,0,0,231.8,766,0,0.000692788,3.49423e-05,2.03323e-05,0.0150604,0.00609859,0.000410232,0.00163643,0.000608482,-0.0251519,-0.000618134,0.000811462,0.0221103,-0.0205115,-0.000162086,0.0015736,-0.00821594
38,3,0,0,0,0,0,0,231.8,254,0,0,0,0,0,0,0,231.8,766,0,0.000463906,-0.000155793,-5.59617e-05,0.0162811,0.0028561,0.000600967,0.0013694,0.000341454,-0.00474327,0.000793304,0.000124817,0.0172656,-0.0207404,0.00136379,0.000543633,-0.00943665
38,4,0,0,0,0,0,0,231.8,254,0,0,0,0,0,0,0,231.8,766,0,0.000654641,0.000454559,0.00127918,0.0162429,0.00522121,0.000639114,0.00117867,0.000684776,0.0739158,0.00109848,0.00058258,0.0178378,-0.0193289,0.00136379,0.000314751,-0.00749115
38,5,0,0,0,0,0,0,231.8,254,0,0,0,0,0,0,0,231.8,766,0,0.000769082,0.00117935,0.00108845,0.016777,0.00541195,0.000791702,0.000911636,0.00133327,-0.0191628,0.00071701,0.00237549,0.01738,-0.0192908,0.00147823,0.00172619,-0.00798706
38,6,0,0,0,0,0,0,231.8,254,0,0,0,0,0,0,0,231.8,766,0,0.000120583,0.00102676,0.00116474,0.0172729,0.00266537,0.00178352,0.000835342,0.00106625,-0.0241982,0.000602569,0.00119293,0.0116961,-0.0205496,0.0012112,0.00168804,-0.00722412
38,7,0,0,0,0,0,0,231.8,254,0,0,0,0,0,0,0,231.8,766,0,0.00145573,0.00095047,0.00162251,0.0162811,0.0041531,0.00124947,0.00110237,0.000989952,0.0797141,0.00109848,0.00207031,0.00925472,-0.0199393,0.00136379,0.000810661,-0.00867371
38,8,0,0,0,0,0,0,231.8,254,0,0,0,0,0,0,0,231.8,766,0,0.000997963,0.000301971,0.00135548,0.0174636,0.00525936,0.00140205,0.000377579,0.00121883,-0.0204598,0.0002211,0.000697021,0.00875881,-0.0199393,0.0012875,0.00107769,-0.00894073
38,9,0,0,0,0,0,0,231.8,254,0,0,0,0,0,0,0,231.8,766,0,0.00107426,-3.20468e-06,0.000249214,0.0168151,0.00384792,0.00102058,0.00167458,0.000951805,-0.0221001,0.000259247,0.000773315,0.00688961,-0.0205115,0.00109676,0.00069622,-0.00722412
39,0,0,0,0,0,0,0,231.8,254,0,0,0,0,0,0,0,231.8,766,0,0.000845375,0.000912323,0.00116474,0.0171203,0.00300869,0.000639114,0.00098793,0.00129513,0.0931419,0.00174698,0.00138367,0.00540188,-0.0206641,0.0018597,0.00218395,-0.00848297
39,1,0,0,0,0,0,0,231.8,254,0,0,0,0,0,0,0,231.8,766,0,0.000883522,0.000721588,0.000401802,0.0154037,0.000223961,0.000829849,0.000568314,-1.86916e-06,-0.0173699,-7.78213e-06,-0.00124847,0.00490597,-0.0209692,0.000753441,0.000543633,-0.00775818
39,2,0,0,0,0,0,0,231.8,254,0,0,0,0,0,0,0,231.8,766,0,0.000273171,0.000378265,0.00135548,0.0154037,0.0009869,0.000791702,0.00117867,0.000837364,-0.024656,0.000984039,0.000658874,0.00971249,-0.0204733,0.000524559,0.00218395,-0.0081778
39,3,0,0,0,0,0,0,231.8,254,0,0,0,0,0,0,0,231.8,766,0,0.00115055,0.000988617,0.00177509,0.0162048,0.00464901,0.00109688,0.00125496,0.00118069,0.0987113,0.00102219,0.000391846,0.00643185,-0.0210455,0.00182156,0.00134472,-0.00806335
39,4,0,0,0,0,0,0,231.8,254,0,0,0,0,0,0,0,231.8,766,0,8.2436e-05,0.00018753,0.000287361,0.0163192,0.00556454,0.00056282,0.00152199,-7.81631e-05,-0.0140893,0.000793304,1.03759e-05,0.0138324,-0.0215414,0.00182156,0.00069622,-0.00844482
39,5,0,0,0,0,0,0,231.8,254,0,0,0,0,0,0,0,231.8,766,0,0.00107426,0.000988617,0.000783272,0.0158233,0.00522121,0.000906143,0.000568314,0.00156216,-0.0619256,0.000526275,-2.77711e-05,0.0165789,-0.02116,0.000753441,0.00142101,-0.00840668
39,6,0,0,0,0,0,0,231.8,254,0,0,0,0,0,0,0,231.8,766,0,0.000235024,-0.000117646,-9.41086e-05,0.0168151,0.00487789,0.000486526,-0.00027092,-1.86916e-06,-0.0129449,0.000488129,-0.000142212,0.0152819,-0.0206259,0.00144009,0.000162163,-0.00806335
39,7,0,0,0,0,0,0,231.8,254,0,0,0,0,0,0,0,231.8,766,0,0.000578347,0.000340118,0.000325508,0.0163574,0.00522121,0.00113502,0.000682754,0.000646629,0.0320686,-4.59291e-05,0.000391846,0.0115435,-0.0210455,0.000639,0.00126843,-0.00951294
39,8,0,0,0,0,0,0,231.8,254,0,0,0,0,0,0,0,231.8,766,0,-0.000413475,7.30893e-05,2.03323e-05,0.0163192,0.00380978,-4.75312e-05,0.000339432,0.000608482,0.0562919,0.000755157,0.000658874,0.0135653,-0.0208548,0.00182156,0.00107769,-0.010047
39,9,0,0,0,0,0,0,231.8,254,0,0,0,0,0,0,0,231.8,766,0,0.000349465,0.000301971,0.000630684,0.0155944,0.0022076,0.00102058,0.000682754,0.000150719,-0.0626885,0.000984039,0.000315552,0.0188296,-0.0202826,0.000906029,0.000810661,-0.00737671
40,0,0,0,0,0,0,0,231.8,254,0,0,0,0,0,0,0,231.8,766,0,0.0011124,0.000301971,-1.78147e-05,0.0156326,0.000834313,0.000600967,-0.000156479,0.00140957,0.0450767,-0.0010759,-0.00117218,0.0156253,-0.0208929,0.00136379,0.000352898,-0.00855927
40,1,0,0,0,0,0,0,231.8,254,0,0,0,0,0,0,0,231.8,766,0,0.000654641,-7.94986e-05,0.000211067,0.0150985,0.00373348,0.000524673,0.000530167,3.62778e-05,0.0470603,0.000793304,-0.000218506,0.0177615,-0.0215796,0.000371971,0.000925102,-0.00703339
40,2,0,0,0,0,0,0,231.8,254,0,0,0,0,0,0,0,231.8,766,0,0.00122685,0.00102676,0.000668831,0.01651,0.00503048,0.00155464,0.0013694,0.00156216,-0.0581109,0.000564422,0.000162964,0.0161212,-0.0208548,0.000944176,0.00138287,-0.00768188
40,3,0,0,0,0,0,0,231.8,254,0,0,0,0,0,0,0,231.8,766,0,0.000959816,0.00167526,0.00166065,0.0170059,0.0053738,0.00056282,0.000530167,0.000837364,0.0499976,0.00220474,0.000162964,0.0174945,-0.0204352,0.0012112,0.00130657,-0.00733856
40,4,0,0,0,0,0,0,231.8,254,0,0,0,0,0,0,0,231.8,766,0,0.0011124,0.00148453,0.00131733,0.0168533,0.00205502,0.00105873,-0.000156479,0.00140957,0.0627387,0.000945892,8.66698e-05,0.0166552,-0.0202063,0.00025753,0.00210766,-0.00649933
40,5,0,0,0,0,0,0,231.8,254,0,0,0,0,0,0,0,231.8,766,0,8.2436e-05,0.000607147,0.00124104,0.0169296,0.00422939,0.000333939,0.000530167,0.000722923,-0.0615441,0.00117477,0.000124817,0.0162356,-0.0205878,0.000867882,8.58689e-05,-0.00882629
40,6,0,0,0,0,0,0,231.8,254,0,0,0,0,0,0,0,231.8,766,0,0.000387612,0.000340118,0.000287361,0.0164337,0.00651821,0.00174538,0.000682754,0.000951805,0.0501121,0.00178513,0.000315552,0.0152819,-0.0203589,0.0012875,0.000391045,-0.00813965
40,7,0,0,0,0,0,0,231.8,254,0,0,0,0,0,0,0,231.8,766,0,-0.000108299,0.00129379,0.00124104,0.0162048,0.00419125,0.00174538,0.00114052,-0.000192604,0.0703681,0.0002211,1.03759e-05,0.0152819,-0.0207785,-4.76455e-05,0.00058178,-0.00768188
40,8,0,0,0,0,0,0,231.8,254,0,0,0,0,0,0,0,231.8,766,0,0.000578347,-0.00030838,9.66262e-05,0.0152893,0.00239834,0.000677261,0.000377579,0.000455895,-0.0729501,-4.59291e-05,-0.000104065,0.0137561,-0.0205115,0.000982323,0.00069622,-0.0081015
40,9,0,0,0,0,0,0,231.8,254,0,0,0,0,0,0,0,231.8,766,0,0.000921669,0.00125565,-9.41086e-05,0.0163574,0.00358089,0.000639114,0.000453873,0.000303307,-0.0266396,0.000106659,0.00138367,0.0164264,-0.0202826,0.00113491,-0.000143013,-0.0081778
41,0,0,0,0,0,0,0,231.8,254,0,0,0,0,0,0,0,231.8,766,0,-0.000299034,0.000530853,0.00093586,0.0164718,0.00194057,0.000982437,0.000530167,0.000227013,-0.00386589,0.000564422,0.00119293,0.0150912,-0.0202826,0.00109676,0.000391045,-0.00977997
41,1,0,0,0,0,0,0,231.8,254,0,0,0,0,0,0,0,231.8,766,0,0.000578347,-4.13517e-05,-0.000361137,0.0152511,-0.00027195,0.000295792,-0.000194626,3.62778e-05,0.0773872,0.000755157,-0.00113403,0.013489,-0.021427,0.000486412,-0.000410042,-0.00871185
41,2,0,0,0,0,0,0,231.8,254,0,0,0,0,0,0,0,231.8,766,0,0.000463906,0.000530853,0.000134773,0.0149078,0.000948753,-9.38424e-06,-0.000881271,0.000341454,-0.0193536,0.0002211,4.85228e-05,0.0137942,-0.0206641,-9.49856e-06,0.00058178,-0.00714783
41,3,0,0,0,0,0,0,231.8,254,0,0,0,0,0,0,0,231.8,766,0,0.000120583,-0.000422821,0.000706978,0.0162811,0.00247463,0.000295792,0.000263138,0.000799217,-0.0275933,-0.000236664,-0.000104065,0.0132983,-0.0210455,0.000906029,0.000543633,-0.00836853
41,4,0,0,0,0,0,0,231.8,254,0,0,0,0,0,0,0,231.8,766,0,6.14207e-06,0.000340118,0.00055439,0.0158996,0.00297054,0.00102058,0.000835342,-4.00161e-05,0.078913,0.000411835,0.000124817,0.00978878,-0.0215414,0.000715294,0.00107769,-0.00733856
41,5,0,0,0,0,0,0,231.8,254,0,0,0,0,0,0,0,231.8,766,0,0.000807228,0.00175156,0.000745125,0.0160141,0.00297054,0.00102058,-0.000194626,0.000989952,-0.020765,0.000602569,0.000925903,0.0128787,-0.0196722,0.00117306,0.0010014,-0.00783447
41,6,0,0,0,0,0,0,231.8,254,0,0,0,0,0,0,0,231.8,766,0,-7.01519e-05,-0.000232087,0.000478096,0.0167007,0.00174984,0.00117317,0.00049202,0.000150719,-0.0233971,-0.000274811,0.000315552,0.0129168,-0.0210074,0.000410118,0.00069622,-0.00859741
41,7,0,0,0,0,0,0,231.8,254,0,0,0,0,0,0,0,231.8,766,0,-3.20049e-05,0.000607147,2.03323e-05,0.0155944,0.00403866,0.000715408,-0.000232773,-0.000230751,0.0931419,0.000640716,4.85228e-05,0.0131839,-0.0208548,0.000677147,0.00103954,-0.00867371
41,8,0,0,0,0,0,0,231.8,254,0,0,0,0,0,0,0,231.8,766,0,0.000769082,0.000645294,0.000745125,0.0167007,0.00613674,0.000372085,0.00125496,0.000913658,-0.0173699,0.000984039,0.000925903,0.0153582,-0.0194052,0.00227932,0.00172619,-0.00859741
41,9,0,0,0,0,0,0,231.8,254,0,0,0,0,0,0,0,231.8,766,0,0.000616494,0.000263824,0.000592537,0.0155944,0.00461086,-4.75312e-05,0.000453873,0.000150719,-0.0263345,0.00128921,-0.000790711,0.0121539,-0.0207404,-0.000352821,0.00119213,-0.00691895
42,0,0,0,0,0,0,0,231.8,254,0,0,0,0,0,0,0,231.8,766,0,0.000883522,0.000340118,-0.000780754,0.015747,0.00308498,-0.000429001,0.000263138,0.000837364,0.0995887,-0.00126663,-0.00067627,0.0122302,-0.0203589,0.000639,0.000505486,-0.0093985
42,1,0,0,0,0,0,0,231.8,254,0,0,0,0,0,0,0,231.8,766,0,0.000387612,0.000721588,0.000706978,0.0150985,0.00422939,-9.38424e-06,0.000415726,0.000684776,-0.0141656,0.000411835,0.00046814,0.0122683,-0.0233344,0.000524559,0.00153545,-0.00794891
42,2,0,0,0,0,0,0,231.8,254,0,0,0,0,0,0,0,231.8,766,0,0.000578347,0.00125565,0.000630684,0.0170822,0.00388607,0.00117317,3.42559e-05,-0.000192604,-0.0623452,0.00170883,0.00111664,0.0141757,-0.0201682,0.00151638,0.00115398,-0.00829224
42,3,0,0,0,0,0,0,231.8,254,0,0,0,0,0,0,0,231.8,766,0,0.000502053,0.000683441,0.000974007,0.0165863,0.00491604,0.000257645,0.000911636,0.000646629,-0.0130212,0.00071701,0.000925903,0.0130694,-0.0199393,0.00102047,0.0015736,-0.00821594
42,4,0,0,0,0,0,0,231.8,254,0,0,0,0,0,0,0,231.8,766,0,0.00115055,0.000988617,0.000439949,0.0166244,0.00640377,0.00128761,-0.000309067,0.000799217,0.0306571,0.000793304,1.03759e-05,0.0140231,-0.0201682,2.86484e-05,0.00123028,-0.00596527
42,5,0,0,0,0,0,0,231.8,254,0,0,0,0,0,0,0,231.8,766,0,0.000845375,0.00137009,-9.41086e-05,0.0168151,0.00846371,0.00151649,0.000224991,0.000112572,0.0598014,0.000869598,0.000735168,0.0137942,-0.019863,0.00140194,0.00107769,-0.00920776
42,6,0,0,0,0,0,0,231.8,254,0,0,0,0,0,0,0,231.8,766,0,0.000769082,0.0011412,0.00181324,0.0169677,0.00915035,0.000448379,0.00110237,0.000875511,-0.0630318,0.00109848,0.000429993,0.012192,-0.0196722,0.00132565,0.00115398,-0.00802521
42,7,0,0,0,0,0,0,231.8,254,0,0,0,0,0,0,0,231.8,766,0,0.000311318,0.000836029,0.000630684,0.0168151,0.00781521,0.00109688,0.000949783,0.0010281,0.0443137,0.000602569,0.00107849,0.0094836,-0.019863,0.000829735,0.00069622,-0.00764374
42,8,0,0,0,0,0,0,231.8,254,0,0,0,0,0,0,0,231.8,766,0,0.000807228,0.00110306,0.000516243,0.0152893,0.00693783,0.000410232,0.000644607,0.000875511,0.0506843,0.00147995,4.85228e-05,0.0111621,-0.0192526,0.00113491,0.00020031,-0.00764374
42,9,0,0,0,0,0,0,231.8,254,0,0,0,0,0,0,0,231.8,766,0,-0.000146446,0.000149383,0.000134773,0.0150604,0.00476345,0.000257645,-0.000156479,-0.000192604,-0.0598275,0.000488129,0.000162964,0.0143283,-0.0208167,-0.000314674,0.00184063,-0.00901703
43,0,0,0,0,0,0,0,231.8,254,0,0,0,0,0,0,0,231.8,766,0,-0.00022274,-0.000270233,9.66262e-05,0.0155944,0.00461086,-0.000505295,0.00011055,-1.86916e-06,0.0493491,-0.00149551,0.000353699,0.0116961,-0.021694,-0.000200233,-0.000486336,-0.00913147
43,1,0,0,0,0,0,0,231.8,254,0,0,0,0,0,0,0,231.8,766,0,0.000502053,0.000454559,0.00116474,0.0162811,0.0028561,0.000715408,0.00060646,0.000875511,0.0628532,0.00178513,0.00115479,0.0139849,-0.0205496,0.00132565,0.000505486,-0.00760559
43,2,0,0,0,0,0,0,231.8,254,0,0,0,0,0,0,0,231.8,766,0,0.00015873,0.00125565,0.000859566,0.0155182,0.00247463,0.000639114,0.000873489,0.00026516,-0.0626504,0.00102219,0.00107849,0.0130313,-0.0210455,0.000753441,0.000543633,-0.00886444
43,3,0,0,0,0,0,0,231.8,254,0,0,0,0,0,0,0,231.8,766,0,0.00103611,0.0012175,0.00127918,0.0166626,0.00159725,0.00056282,0.000759048,0.00114254,0.0506843,0.00071701,0.00046814,0.0130694,-0.0196341,0.000982323,0.000619926,-0.00894073
43,4,0,0,0,0,0,0,231.8,254,0,0,0,0,0,0,0,231.8,766,0,0.000730935,0.00106491,0.00112659,0.0167389,0.00121578,0.00159279,0.00167458,0.00076107,0.0714744,0.00117477,0.00126923,0.012955,-0.0205496,0.00231747,0.000505486,-0.00840668
43,5,0,0,0,0,0,0,231.8,254,0,0,0,0,0,0,0,231.8,766,0,0.000997963,0.000912323,0.000897713,0.0159759,0.0016354,0.000982437,0.000873489,0.000989952,-0.0736367,0.00102219,1.03759e-05,0.0144046,-0.0206259,0.00166897,0.00168804,-0.00848297
43,6,0,0,0,0,0,0,231.8,254,0,0,0,0,0,0,0,231.8,766,0,0.000845375,-0.000384674,0.000592537,0.0158615,-0.000615272,0.000486526,0.000759048,-0.000230751,-0.0273263,0.00125107,0.000391846,0.0162356,-0.0209311,0.000448265,0.0010014,-0.00813965
43,7,0,0,0,0,0,0,231.8,254,0,0,0,0,0,0,0,231.8,766,0,0.000845375,0.000645294,2.03323e-05,0.0162429,-0.00122562,0.000410232,0.000568314,0.000913658,-0.000127487,-0.000465546,-0.000409241,0.0189441,-0.0202444,0.000410118,0.0010014,-0.00794891
43,8,0,0,0,0,0,0,231.8,254,0,0,0,0,0,0,0,231.8,766,0,0.000502053,0.000340118,2.03323e-05,0.0163192,-0.00446812,-0.000429001,0.000415726,3.62778e-05,0.139757,0.00140366,0.000277405,0.0160449,-0.0209692,0.000562706,-0.000410042,-0.00768188
43,9,0,0,0,0,0,0,231.8,254,0,0,0,0,0,0,0,231.8,766,0,-0.000337181,-0.00068985,0.000401802,0.0144882,-0.00320927,0.000257645,0.000224991,-0.000459633,0.199229,0.000106659,-0.000332947,0.0161212,-0.0213507,0.000410118,0.00115398,-0.00760559
44,0,0,0,0,0,0,0,231.8,254,0,0,0,0,0,0,0,231.8,766,0,0.000845375,0.00152267,0.000592537,0.0154419,-0.00237003,0.00109688,0.000415726,0.000837364,0.156313,0.000564422,-2.77711e-05,0.0151675,-0.0215033,0.000639,0.0010014,-0.0093985
44,1,0,0,0,0,0,0,231.8,254,0,0,0,0,0,0,0,231.8,766,0,0.000883522,0.00213303,0.00154621,0.0166626,0.00190243,0.00094429,0.000377579,0.000112572,0.0878013,0.00121292,0.00111664,0.0166934,-0.0205496,0.00163082,0.00020031,-0.00871185
44,2,0,0,0,0,0,0,231.8,254,0,0,0,0,0,0,0,231.8,766,0,0.0011124,0.00163712,0.000478096,0.0166244,0.00457272,0.00094429,0.000682754,0.000455895,-0.106329,0.000564422,8.66698e-05,0.0190203,-0.0205878,0.00144009,0.00145916,-0.00871185
44,3,0,0,0,0,0,0,231.8,254,0,0,0,0,0,0,0,231.8,766,0,8.2436e-05,3.49423e-05,0.00112659,0.0165863,0.00483974,0.000181351,-0.000156479,-0.000650368,-0.0798928,-8.40761e-05,-0.000714417,0.0166934,-0.0204352,0.00109676,-0.000448189,-0.00829224
44,4,0,0,0,0,0,0,231.8,254,0,0,0,0,0,0,0,231.8,766,0,0.000845375,-0.000880585,9.66262e-05,0.0154419,0.00461086,0.000219498,0.00125496,7.44248e-05,0.047747,0.000182953,0.000124817,0.0205462,-0.019863,-0.000696144,0.00069622,-0.0081778
44,5,0,0,0,0,0,0,231.8,254,0,0,0,0,0,0,0,231.8,766,0,0.000692788,0.000263824,0.00127918,0.017044,0.00674709,0.00109688,0.000339432,0.000722923,-0.0695168,0.000411835,0.00107849,0.0200885,-0.0208548,0.000829735,0.00142101,-0.00871185
44,6,0,0,0,0,0,0,231.8,254,0,0,0,0,0,0,0,231.8,766,0,0.000387612,0.0012175,0.00093586,0.0149459,0.00678524,0.000791702,0.000759048,-7.81631e-05,-0.0723016,0.00106033,0.00134552,0.0191729,-0.0204733,0.00144009,0.000467339,-0.00813965
44,7,0,0,0,0,0,0,231.8,254,0,0,0,0,0,0,0,231.8,766,0,0.000921669,0.000988617,0.00116474,0.0161285,0.0079678,0.00094429,0.000224991,0.00076107,0.0630058,0.00140366,0.000773315,0.0215762,-0.0200156,0.000906029,0.000391045,-0.00756744
44,8,0,0,0,0,0,0,231.8,254,0,0,0,0,0,0,0,231.8,766,0,0.000883522,0.00110306,0.00150806,0.0165481,0.00636562,0.000906143,0.000911636,0.00076107,-0.0514733,0.000564422,0.000811462,0.0211184,-0.0211981,0.00132565,0.00184063,-0.00844482
44,9,0,0,0,0,0,0,231.8,254,0,0,0,0,0,0,0,231.8,766,0,0.000616494,0.00129379,0.000859566,0.0158615,0.007243,0.000143204,0.00121681,0.000570335,-0.0950372,0.000335541,0.00046814,0.0177233,-0.02116,-0.000505409,0.000543633,-0.00890259
45,0,0,0,0,0,0,0,231.8,254,0,0,0,0,0,0,0,231.8,766,0,0.000997963,0.000378265,0.000516243,0.0164337,0.00888332,0.000181351,0.00117867,-7.81631e-05,-0.0413644,0.000373688,0.00096405,0.0163882,-0.0210455,0.000677147,0.000162163,-0.00894073
45,1,0,0,0,0,0,0,231.8,254,0,0,0,0,0,0,0,231.8,766,0,0.000273171,-0.00030838,0.000745125,0.0158615,0.00808224,0.000524673,0.00060646,-0.00087925,0.00860817,0.000564422,4.85228e-05,0.0135272,-0.0211218,0.000791588,0.000162163,-0.0108862
45,2,0,0,0,0,0,0,231.8,254,0,0,0,0,0,0,0,231.8,766,0,-0.000108299,0.000797882,0.000668831,0.0146026,0.00968441,0.000791702,0.000224991,3.62778e-05,0.0326026,0.000488129,8.66698e-05,0.0118487,-0.0211218,0.000562706,0.000124016,-0.00882629
45,3,0,0,0,0,0,0,231.8,254,0,0,0,0,0,0,0,231.8,766,0,8.2436e-05,-0.000613556,0.000287361,0.0157852,0.00758633,-0.000161972,-0.000118332,0.000417748,-0.0780999,-8.40761e-05,-0.000142212,0.012192,-0.0203207,0.000715294,0.000886955,-0.0093222
45,4,0,0,0,0,0,0,231.8,254,0,0,0,0,0,0,0,231.8,766,0,-3.20049e-05,-0.000575409,0.000745125,0.0150222,0.00720486,0.000333939,0.000263138,-4.00161e-05,0.029856,0.000182953,0.00104034,0.0126879,-0.0212363,0.00025753,-0.000371895,-0.00825409
45,5,0,0,0,0,0,0,231.8,254,0,0,0,0,0,0,0,231.8,766,0,0.000769082,0.000149383,0.00055439,0.0154419,0.00384792,0.000295792,0.000873489,0.00026516,0.0382102,-0.00016037,0.00046814,0.0138705,-0.0203589,0.00132565,0.000238457,-0.00936035
45,6,0,0,0,0,0,0,231.8,254,0,0,0,0,0,0,0,231.8,766,0,-0.000337181,0.000569,0.00124104,0.0161666,0.00438198,0.00117317,0.000263138,0.000379601,-0.0641381,0.000411835,0.000773315,0.0158923,-0.0204352,0.000677147,0.00111584,-0.00852112
45,7,0,0,0,0,0,0,231.8,254,0,0,0,0,0,0,0,231.8,766,0,0.000692788,0.000378265,0.000325508,0.0161666,0.00392422,0.000143204,0.00098793,0.000303307,0.0440467,-0.000274811,-0.000218506,0.0141375,-0.0203589,0.000143089,8.58689e-05,-0.00825409
45,8,0,0,0,0,0,0,231.8,254,0,0,0,0,0,0,0,231.8,766,0,0.000502053,0.000569,0.00146992,0.017044,0.00049099,0.00151649,0.00106422,0.000951805,0.058657,0.0002211,0.00134552,0.0152819,-0.0199011,0.00216488,0.00126843,-0.00981812
45,9,0,0,0,0,0,0,231.8,254,0,0,0,0,0,0,0,231.8,766,0,-0.000489769,0.000874176,0.00131733,0.0160141,-4.92088e-06,0.00102058,0.00110237,-0.000154457,-0.0620782,0.000335541,0.00096405,0.0172656,-0.0209692,0.00113491,0.00180248,-0.00882629
46,0,0,0,0,0,0,0,231.8,254,0,0,0,0,0,0,0,231.8,766,0,0.00122685,0.00095047,0.000974007,0.0162048,0.00171169,0.00147835,0.000873489,0.000646629,0.0513328,0.000945892,0.000315552,0.0178759,-0.0196341,0.00151638,0.00103954,-0.00878815
46,1,0,0,0,0,0,0,231.8,254,0,0,0,0,0,0,0,231.8,766,0,0.000997963,0.0011412,0.0016988,0.017044,0.000910606,0.00117317,0.000873489,0.000646629,0.0715888,0.00128921,0.00172699,0.0139087,-0.0200919,0.00147823,0.00134472,-0.00699524
46,2,0,0,0,0,0,0,231.8,254,0,0,0,0,0,0,0,231.8,766,0,0.000807228,-3.20468e-06,0.00116474,0.0155944,0.00304684,0.000639114,0.000644607,0.000150719,-0.0679147,-0.000312958,0.000773315,0.0162356,-0.0205496,0.00140194,0.000429192,-0.0103522
46,3,0,0,0,0,0,0,231.8,254,0,0,0,0,0,0,0,231.8,766,0,0.000769082,0.000225677,-0.000132256,0.0169296,0.00445827,0.00113502,0.00110237,0.000570335,-0.022329,-7.78213e-06,-0.000142212,0.014519,-0.020397,0.000677147,-0.000410042,-0.00993256
46,4,0,0,0,0,0,0,231.8,254,0,0,0,0,0,0,0,231.8,766,0,0.000997963,0.000836029,0.00017292,0.0162048,0.00281796,0.000677261,0.000301285,-1.86916e-06,-0.00115746,0.000945892,0.000735168,0.00841549,-0.0202826,0.000753441,0.000467339,-0.00798706
46,5,0,0,0,0,0,0,231.8,254,0,0,0,0,0,0,0,231.8,766,0,0.000387612,0.000874176,0.00108845,0.0169677,0.00617489,0.000982437,0.000644607,0.000455895,0.0755943,3.03648e-05,0.00096405,0.0131076,-0.0197867,0.00178341,0.00138287,-0.0103903
46,6,0,0,0,0,0,0,231.8,254,0,0,0,0,0,0,0,231.8,766,0,0.000807228,0.000797882,0.00093586,0.0158996,0.00518307,0.00128761,0.00121681,-1.86916e-06,-0.0136697,0.00163254,0.000620727,0.0153964,-0.0195197,0.0012875,0.000314751,-0.00806335
46,7,0,0,0,0,0,0,231.8,254,0,0,0,0,0,0,0,231.8,766,0,0.000769082,3.49423e-05,0.000783272,0.0151367,0.0053738,0.000105057,0.000415726,0.000150719,-0.0197732,3.03648e-05,0.000391846,0.0129931,-0.0213507,0.000143089,-0.000410042,-0.010047
46,8,0,0,0,0,0,0,231.8,254,0,0,0,0,0,0,0,231.8,766,0,0.000120583,0.000225677,-0.000132256,0.0155944,0.00674709,0.00056282,0.000301285,0.000227013,0.083834,-8.40761e-05,4.85228e-05,0.0102084,-0.0214651,0.00117306,0.00058178,-0.00943665
46,9,0,0,0,0,0,0,231.8,254,0,0,0,0,0,0,0,231.8,766,0,0.00107426,7.30893e-05,0.000668831,0.0162048,0.00850185,0.00094429,0.000682754,0.000341454,-0.0138985,0.000869598,0.00046814,0.00940731,-0.0194815,0.000791588,0.0015736,-0.00844482
47,0,0,0,0,0,0,0,231.8,254,0,0,0,0,0,0,0,231.8,766,0,0.000845375,0.000492706,0.000897713,0.0167389,0.00804409,0.00117317,0.00239937,0.000913658,-0.0160729,0.0002211,0.000201111,0.00582149,-0.0198248,0.00113491,0.00184063,-0.00806335
47,1,0,0,0,0,0,0,231.8,254,0,0,0,0,0,0,0,231.8,766,0,0.000845375,0.000492706,0.00112659,0.0160522,0.00598415,0.000791702,-8.0185e-05,0.000417748,0.0986732,0.00147995,0.000277405,0.00818661,-0.0210837,0.000600853,0.000619926,-0.00825409
47,2,0,0,0,0,0,0,231.8,254,0,0,0,0,0,0,0,231.8,766,0,-0.000413475,0.00102676,0.000745125,0.0159378,0.00834927,0.000753555,-0.000194626,0.000837364,-0.0116479,0.000335541,0.000429993,0.00906399,-0.0204352,0.00132565,0.00126843,-0.00894073
47,3,0,0,0,0,0,0,231.8,254,0,0,0,0,0,0,0,231.8,766,0,0.000845375,-7.94986e-05,0.000821419,0.0168151,0.00751003,-0.000619736,0.000263138,7.44248e-05,-0.019201,0.00121292,0.000315552,0.00898769,-0.0214651,0.00102047,-0.000982246,-0.00718597
47,4,0,0,0,0,0,0,231.8,254,0,0,0,0,0,0,0,231.8,766,0,-0.000451622,-0.000804291,0.000401802,0.0150222,0.00773891,0.000639114,-0.000156479,-0.000688515,0.102068,-0.000122223,-0.000256653,0.0103228,-0.0213126,-0.000734291,0.00058178,-0.00844482
47,5,0,0,0,0,0,0,231.8,254,0,0,0,0,0,0,0,231.8,766,0,0.000769082,7.30893e-05,0.00017292,0.0163192,0.00701412,0.000219498,0.000873489,7.44248e-05,-0.00840538,0.000259247,0.000658874,0.0111239,-0.0203207,0.000715294,9.57493e-06,-0.00901703
47,6,0,0,0,0,0,0,231.8,254,0,0,0,0,0,0,0,231.8,766,0,0.00107426,0.000530853,0.0010503,0.0160522,0.00525936,0.000829849,0.000873489,0.00110439,-0.055288,0.000640716,0.000773315,0.0131457,-0.0208929,0.00147823,0.00134472,-0.00913147
47,7,0,0,0,0,0,0,231.8,254,0,0,0,0,0,0,0,231.8,766,0,-0.000260887,0.00106491,0.00108845,0.0163955,0.00586971,0.000715408,7.24029e-05,0.000532188,-0.00863426,6.85118e-05,0.000239258,0.00887325,-0.0199011,0.000562706,0.000963249,-0.00905518
47,8,0,0,0,0,0,0,231.8,254,0,0,0,0,0,0,0,231.8,766,0,0.000845375,-4.13517e-05,-0.000628166,0.0153274,0.00430569,0.000639114,0.000644607,0.000532188,0.035044,0.000373688,-0.000523682,0.0070422,-0.0208167,0.000677147,0.000238457,-0.00951294
47,9,0,0,0,0,0,0,231.8,254,0,0,0,0,0,0,0,231.8,766,0,0.000997963,0.000416412,-0.000284843,0.0156326,0.00236019,-4.75312e-05,0.000148697,-0.000307045,0.0566352,0.000144806,0.000391846,0.0100558,-0.0206641,0.000715294,-0.000715218,-0.00916962
48,0,0,0,0,0,0,0,231.8,254,0,0,0,0,0,0,0,231.8,766,0,0.000196877,-0.000232087,0.000439949,0.0161666,0.00133022,-4.75312e-05,-0.000347214,3.62778e-05,-0.0564706,-0.000274811,8.66698e-05,0.0158541,-0.0210455,0.000867882,0.00123028,-0.00955109
48,1,0,0,0,0,0,0,231.8,254,0,0,0,0,0,0,0,231.8,766,0,0.00107426,0.000492706,0.000363655,0.0161285,-8.12148e-05,0.000295792,0.000530167,0.000646629,0.0448859,0.00106033,0.000162964,0.0186007,-0.0202444,-9.49856e-06,0.00020031,-0.00718597
48,2,0,0,0,0,0,0,231.8,254,0,0,0,0,0,0,0,231.8,766,0,-0.000146446,0.000797882,0.00124104,0.0161666,0.000834313,0.000867996,-3.89107e-06,-0.000459633,0.0516761,0.000678863,0.000887756,0.0230258,-0.0204733,0.000829735,0.00119213,-0.0102759
48,3,0,0,0,0,0,0,231.8,254,0,0,0,0,0,0,0,231.8,766,0,0.000769082,0.000225677,0.00120289,0.0179214,0.00304684,0.00136391,0.00049202,0.000875511,-0.0525796,0.00125107,-6.59181e-05,0.0251239,-0.0204352,0.00178341,0.00142101,-0.0081015
48,4,0,0,0,0,0,0,231.8,254,0,0,0,0,0,0,0,231.8,766,0,0.000921669,0.00133194,0.00093586,0.0175399,0.00323757,0.00102058,0.00106422,0.000341454,0.0520957,0.000411835,8.66698e-05,0.0198596,-0.0206641,-0.000123939,9.57493e-06,-0.00798706
48,5,0,0,0,0,0,0,231.8,254,0,0,0,0,0,0,0,231.8,766,0,0.000769082,0.000912323,0.000516243,0.0165863,0.00232204,0.000639114,0.00121681,0.00121883,0.064379,0.000259247,0.000277405,0.0171511,-0.0209311,0.0012112,0.00149731,-0.00871185
48,6,0,0,0,0,0,0,231.8,254,0,0,0,0,0,0,0,231.8,766,0,0.000997963,0.000225677,0.000249214,0.0161285,0.00304684,0.000715408,0.000148697,0.000722923,-0.0582635,6.85118e-05,-0.000371094,0.0171893,-0.0202826,0.00105862,-0.00140186,-0.00813965
48,7,0,0,0,0,0,0,231.8,254,0,0,0,0,0,0,0,231.8,766,0,-0.000299034,-0.000460968,5.84793e-05,0.0159378,0.00487789,0.000181351,3.42559e-05,0.000417748,0.0516761,-0.000732575,0.000315552,0.0140612,-0.0214651,0.000524559,9.57493e-06,-0.00962738
48,8,0,0,0,0,0,0,231.8,254,0,0,0,0,0,0,0,231.8,766,0,0.0005402,0.000836029,-0.000399284,0.0165481,0.00644192,0.000448379,0.00106422,0.000303307,0.0694907,-7.78213e-06,0.000887756,0.0116198,-0.0216559,0.00102047,0.000543633,-0.00859741
48,9,0,0,0,0,0,0,231.8,254,0,0,0,0,0,0,0,231.8,766,0,0.000235024,0.00125565,0.000897713,0.0158615,0.00735744,0.000448379,0.000682754,0.000341454,-0.0707375,0.000488129,0.000697021,0.0148242,-0.0202826,0.00124935,0.00107769,-0.00787262
49,0,0,0,0,0,0,0,231.8,254,0,0,0,0,0,0,0,231.8,766,0,0.00015873,0.00106491,0.000706978,0.0165481,0.0047253,0.00109688,-0.000385361,0.000646629,-0.024923,0.00102219,0.000391846,0.0150912,-0.0209692,0.000295677,0.00176434,-0.00813965
49,1,0,0,0,0,0,0,231.8,254,0,0,0,0,0,0,0,231.8,766,0,0.000769082,0.000797882,0.00093586,0.0159378,0.00636562,0.00109688,0.000759048,0.000303307,-0.00272148,0.00132736,0.000429993,0.0125735,-0.0207022,0.000982323,-0.000143013,-0.00695709
49,2,0,0,0,0,0,0,231.8,254,0,0,0,0,0,0,0,231.8,766,0,0.000273171,0.000912323,0.000249214,0.0161666,0.00766262,0.000143204,-4.2038e-05,0.000532188,0.0741065,0.000869598,0.000239258,0.0112384,-0.0212744,0.000104942,0.00103954,-0.00882629
49,3,0,0,0,0,0,0,231.8,254,0,0,0,0,0,0,0,231.8,766,0,0.000807228,7.30893e-05,0.00108845,0.0170059,0.00751003,0.00056282,0.000453873,0.000684776,-0.0188958,0.000640716,0.00130737,0.0140612,-0.0192908,0.00136379,0.00149731,-0.00760559
49,4,0,0,0,0,0,0,231.8,254,0,0,0,0,0,0,0,231.8,766,0,0.000692788,0.000874176,0.000859566,0.0156326,0.0060223,0.00117317,0.00121681,0.000837364,-0.0224053,0.0002211,-2.77711e-05,0.0135272,-0.021427,0.00109676,0.00142101,-0.00665192
49,5,0,0,0,0,0,0,231.8,254,0,0,0,0,0,0,0,231.8,766,0,0.0011124,0.000683441,2.03323e-05,0.0164337,0.00567898,0.000105057,-0.000309067,0.000684776,0.0802482,0.000411835,-0.0002948,0.0157779,-0.0204733,0.00113491,0.000238457,-0.00905518
49,6,0,0,0,0,0,0,231.8,254,0,0,0,0,0,0,0,231.8,766,0,6.14207e-06,-0.000232087,-1.78147e-05,0.0155944,0.00377163,0.000372085,0.000301285,0.000303307,-0.0230538,-0.000465546,0.000658874,0.016083,-0.0205115,0.000677147,0.00134472,-0.0081015
49,7,0,0,0,0,0,0,231.8,254,0,0,0,0,0,0,0,231.8,766,0,-0.000260887,7.30893e-05,0.000287361,0.0156326,0.00274166,-0.00031456,0.000835342,-0.000230751,-0.0222909,-0.00168625,-0.00109589,0.0151675,-0.0222662,-0.000581703,8.58689e-05,-0.00924591
49,8,0,0,0,0,0,0,231.8,254,0,0,0,0,0,0,0,231.8,766,0,-0.000146446,0.00018753,-0.000437431,0.0154419,0.00571712,0.000295792,0.000759048,-4.00161e-05,0.0931037,0.000984039,0.000277405,0.0140994,-0.0208929,0.00117306,0.000314751,-0.00802521
49,9,0,0,0,0,0,0,231.8,254,0,0,0,0,0,0,0,231.8,766,0,0.000578347,0.000797882,0.00116474,0.0164337,0.00514492,0.00113502,0.000949783,0.000341454,-0.0175988,0.000488129,0.000315552,0.0166934,-0.0200537,0.00102047,0.000124016,-0.00878815
50,0,0,0,0,0,0,0,231.8,254,0,0,0,0,0,0,0,231.8,766,0,-0.000184593,-0.000270233,0.000249214,0.0161666,0.0053738,0.000105057,0.000644607,0.000837364,-0.0251519,-0.00141922,0.00104034,0.0167697,-0.0211218,0.000791588,0.000391045,-0.00924591
50,1,0,0,0,0,0,0,231.8,254,0,0,0,0,0,0,0,231.8,766,0,-7.01519e-05,-0.00030838,-0.000742607,0.0160522,0.00403866,0.000524673,-3.89107e-06,-0.00049778,0.096804,0.000297394,-0.000371094,0.0139087,-0.0211981,0.000333824,0.000162163,-0.00840668
50,2,0,0,0,0,0,0,231.8,254,0,0,0,0,0,0,0,231.8,766,0,0.000387612,0.000607147,-0.00032299,0.0159378,0.00129208,-4.75312e-05,-0.000156479,0.000646629,-0.0145089,-0.000389252,0.000124817,0.0157397,-0.0210455,0.00025753,0.000314751,-0.00871185
50,3,0,0,0,0,0,0,231.8,254,0,0,0,0,0,0,0,231.8,766,0,0.000845375,3.49423e-05,5.84793e-05,0.016777,0.00159725,0.000372085,0.000835342,0.000188866,-0.06204,0.00132736,0.000315552,0.015816,-0.0217322,0.000944176,0.00145916,-0.00878815
50,4,0,0,0,0,0,0,231.8,254,0,0,0,0,0,0,0,231.8,766,0,0.000883522,0.000340118,0.000325508,0.0156326,0.00148281,0.000829849,-0.000804977,-7.81631e-05,-0.0129067,0.000945892,1.03759e-05,0.0157016,-0.0208548,0.000524559,0.00020031,-0.00684265
50,5,0,0,0,0,0,0,231.8,254,0,0,0,0,0,0,0,231.8,766,0,0.00145573,0.000607147,-5.59617e-05,0.0160904,0.0016354,0.000333939,0.00106422,0.00106625,0.0292075,-0.000427399,0.00058258,0.0143664,-0.0206641,0.000906029,0.000658073,-0.00852112
50,6,0,0,0,0,0,0,231.8,254,0,0,0,0,0,0,0,231.8,766,0,0.000235024,-0.000613556,5.84793e-05,0.0156707,-0.000538978,0.000600967,0.00011055,-0.000535927,0.0550712,0.000182953,0.0010022,0.0131839,-0.0217703,0.000982323,0.0010014,-0.00833038
50,7,0,0,0,0,0,0,231.8,254,0,0,0,0,0,0,0,231.8,766,0,0.000196877,0.000454559,-0.000246697,0.0156326,-0.00103489,0.000410232,0.00060646,0.000608482,-0.061773,0.000526275,0.000277405,0.0146334,-0.0207785,0.000944176,0.00161175,-0.00787262
50,8,0,0,0,0,0,0,231.8,254,0,0,0,0,0,0,0,231.8,766,0,0.000196877,-0.000384674,0.000516243,0.0155563,0.000796166,0.000372085,0.000415726,-0.000268898,0.0451148,0.00136551,0.000353699,0.0137561,-0.0206641,0.00105862,0.00111584,-0.00844482
50,9,0,0,0,0,0,0,231.8,254,0,0,0,0,0,0,0,231.8,766,0,0.000959816,0.00106491,0.000859566,0.0166244,0.000147667,0.000906143,0.000644607,0.000417748,0.0485481,0.000373688,0.000162964,0.0164645,-0.0203589,0.000600853,0.00123028,-0.00779633
51,0,0,0,0,0,0,0,231.8,254,0,0,0,0,0,0,0,231.8,766,0,0.000463906,0.00117935,0.000821419,0.0163574,-0.000195656,0.000906143,0.000911636,0.00114254,-0.0587975,0.000144806,0.00126923,0.0149386,-0.0205115,0.00147823,0.00210766,-0.00772003
51,1,0,0,0,0,0,0,231.8,254,0,0,0,0,0,0,0,231.8,766,0,0.000769082,0.000836029,0.000363655,0.0165481,-0.000195656,0.00166908,0.00110237,0.000799217,0.0494636,0.00182327,0.00149811,0.012192,-0.0191382,0.00124935,0.00126843,-0.0075293
51,2,0,0,0,0,0,0,231.8,254,0,0,0,0,0,0,0,231.8,766,0,0.00130314,0.00110306,0.0010503,0.0153656,0.000910606,0.000486526,0.000797195,0.000455895,0.0633872,-8.40761e-05,0.000925903,0.0182193,-0.0189856,0.000753441,0.000505486,-0.00901703
51,3,0,0,0,0,0,0,231.8,254,0,0,0,0,0,0,0,231.8,766,0,0.000273171,0.000492706,-5.59617e-05,0.0163192,-0.000386391,0.000143204,-8.0185e-05,0.0010281,-0.0618874,0.00071701,0.00058258,0.0163119,-0.0211981,0.000639,0.000963249,-0.0093222
51,4,0,0,0,0,0,0,231.8,254,0,0,0,0,0,0,0,231.8,766,0,0.000959816,0.00125565,0.00135548,0.0170822,0.000796166,0.00121132,0.00186531,-1.86916e-06,0.050875,0.000602569,0.00203217,0.0151294,-0.0204352,0.00136379,0.00191692,-0.00871185
51,5,0,0,0,0,0,0,231.8,254,0,0,0,0,0,0,0,231.8,766,0,0.00122685,0.000683441,-1.78147e-05,0.0167007,0.00121578,0.000906143,0.000530167,0.00114254,0.070597,0.00071701,-0.000447388,0.0149005,-0.0200537,0.00113491,0.000162163,-0.00981812
51,6,0,0,0,0,0,0,231.8,254,0,0,0,0,0,0,0,231.8,766,0,0.000349465,0.000797882,0.000783272,0.0166626,0.00110134,0.00117317,7.24029e-05,-0.000192604,-0.0729119,0.000755157,0.000620727,0.0149386,-0.0209692,0.000906029,0.000772514,-0.00867371
